t,ax,ay,az,gx,gy,gz
1764918387576,0.1340753,0.9648633,9.193734,0.02443461,0.062308256,0.013439035
1764918387629,0.016759412,0.8714894,9.435549,0.015882496,0.111177474,0.02443461
1764918387681,0.23223756,0.9935937,9.425972,-0.0036651916,0.013439035,0.02443461
1764918387734,0.06464344,1.0845734,9.524135,0.0012217305,0.028099801,0.02687807
1764918387787,0.4237737,0.9528923,9.215282,0.0036651916,-0.05009095,0.02321288
1764918387844,0.3854665,1.1013328,9.64145,-0.008552114,0.047647487,0.02443461
1764918387896,0.5410896,1.163582,9.495404,0.002443461,-0.007330383,0.018325957
1764918387950,0.59376204,1.2569559,9.797073,-0.0061086523,0.06841691,0.014660766
1764918388007,1.2258313,2.1523874,10.005369,0.015882496,-0.118507855,-0.035430185
1764918388060,1.3934253,2.3319526,10.496181,0.03176499,-0.09040806,-0.08307768
1764918388112,1.3120226,2.2816741,10.601525,0.061086524,-0.11362094,-0.14049901
1764918388165,1.5658079,2.054225,11.274296,0.119729586,0.010995574,-0.2125811
1764918388227,0.866701,1.9129672,11.408371,0.17715092,0.16493362,-0.28099802
1764918388279,0.08619126,0.9888053,10.740389,0.35796702,-0.089186326,-0.39584067
1764918388333,-0.6967127,0.81881696,10.888829,0.376293,0.44348818,-0.39461896
1764918388388,-0.5410896,0.4333505,12.8688345,0.46181414,-0.453262,-0.50946164
1764918388444,-1.6663644,1.1300632,11.942278,0.7244862,0.13072516,-0.3652974
1764918388498,-1.4700398,1.055843,13.117831,0.8014552,0.05009095,-0.30298916
1764918388551,1.8938135,0.89543146,5.1930237,0.87109387,-0.1160644,-0.30298916
1764918388606,-0.16280572,2.954445,8.820239,0.88697636,0.32742378,-0.23823744
1764918388658,1.6136919,3.4237084,11.659762,0.79290307,0.593761,-0.23579398
1764918388711,-0.49799395,2.9257145,12.605472,0.99082345,0.3371976,-0.3042109
1764918388764,2.0685902,3.98874,10.43872,1.0848967,0.17470746,-0.16737708
1764918388816,-2.4396915,3.9360676,14.834474,1.1508701,0.4129449,-0.2687807
1764918388870,-1.5777789,4.2185836,15.713146,1.3304645,0.40317106,-0.12217305
1764918388923,-2.4636335,2.7820623,21.394587,2.1331415,0.95905846,0.02321288
1764918388975,-0.51235914,0.46208093,20.90617,2.6010642,0.7012733,0.12095132
1764918389028,0.6607997,-2.6982653,21.35149,3.1227431,0.54367006,0.14905111
1764918389081,2.7102363,-9.437943,14.700398,4.0683627,0.8918633,0.18203785
1764918389133,4.6830587,-13.230358,10.896012,4.4238863,0.87964594,0.13927728
1764918389185,3.679888,-16.481684,5.7005944,4.6999974,1.8069394,0.2773328
1764918389244,2.5474305,-20.81519,-7.2568254,4.849048,1.1618657,0.6072
1764918389296,1.7980455,-17.822437,-8.9998045,4.721988,1.1459832,0.75502944
1764918389348,2.1404164,-15.239094,-14.571112,4.4617596,0.61208695,0.8063421
1764918389402,3.572149,-10.350134,-24.392126,3.4855971,0.40683624,0.6780604
1764918389455,4.9775453,-7.6973586,-28.960264,2.783102,-0.042760566,0.5363397
1764918389509,5.595249,-6.0118403,-32.625786,1.9511036,0.0842994,0.36896262
1764918389562,5.389348,-4.0198646,-44.97508,-0.07696902,-0.13805555,-0.07086037
1764918389615,2.8419175,-5.494693,-47.170563,-1.4978416,-0.19914207,-0.19547687
1764918389669,3.502717,-13.046005,-46.30865,-3.3487632,-0.9126327,-0.24556783
1764918389724,1.5131354,-40.732555,-38.395813,-6.1257567,-1.5173893,0.13927728
1764918389777,3.052607,-55.035515,-28.749575,-7.193549,-1.59558,0.42149702
1764918389830,4.8578353,-66.7288,-18.38268,-7.9400263,-1.6713274,0.72692966
1764918389883,9.991004,-78.44363,2.6647465,-8.502023,-1.7983873,1.2095132
1764918389936,10.828975,-72.73345,30.351295,-8.378628,-1.070236,1.3414601
1764918389989,17.29332,-52.789753,56.608505,-7.283957,-1.028697,1.4672983
1764918390045,17.417818,-8.236053,75.49158,-3.186273,0.059864793,0.7733554
1764918390098,12.169727,-1.508347,75.19709,-1.0763446,0.13194689,0.30176744
1764918390150,12.955026,1.151611,69.60423,0.8246681,0.43371433,0.06963864
1764918390203,11.815386,-12.62702,55.399433,3.8069122,0.75625116,-0.29077184
1764918390257,14.841657,-27.839777,47.77869,5.0469685,0.9370673,-0.47891834
1764918390311,12.413936,-43.02859,36.458904,6.2564816,1.4746287,-0.60231316
1764918390363,7.589619,-58.73695,8.228871,7.657807,1.7055358,-0.36041048
1764918390415,3.4979286,-58.39458,-2.0350714,7.732332,1.7776178,-0.065973446
1764918390467,1.1013328,-55.030727,-7.8625584,7.4916515,1.3720033,0.31642818
1764918390522,3.763685,-45.58081,-17.51598,6.6596527,1.6297885,0.9089675
1764918390575,4.8722005,-39.47081,-25.48867,6.1489697,0.31520647,0.9578367
1764918390630,7.893683,-30.66733,-38.927326,5.3511796,0.2003638,0.68539083
1764918390682,7.9032598,-10.084377,-72.94654,1.9889772,-0.087964594,0.4813618
1764918390748,10.3214035,-9.871294,-73.24103,-0.516792,-0.75747293,0.19425514
1764918390800,8.798691,-34.58185,-56.381054,-5.116607,-1.5015068,-0.17104226
1764918390854,6.2249246,-54.221485,-45.07803,-7.216762,-1.428203,0.017104227
1764918390906,4.7907977,-70.21475,-30.736761,-8.144055,-1.4074335,0.16615535
1764918390963,9.136273,-78.44363,0.21547815,-9.118997,-1.3402383,1.2534955
1764918391019,9.895236,-78.44363,8.51857,-8.842885,-1.754405,1.3903292
1764918391072,9.746795,-78.1252,34.23469,-8.460484,-1.0433578,1.5760323
1764918391127,17.164032,-29.582756,63.929974,-5.4953437,-0.906524,1.3439035
1764918391180,18.401834,-12.995727,69.2044,-3.8276815,-0.23090707,0.9627236
1764918391232,16.242264,-3.2680852,70.133354,-1.9645426,-0.27122417,0.52778757
1764918391284,16.115372,-2.3750482,64.083206,1.3109168,0.118507855,-0.2565634
1764918391337,16.998833,-9.854534,58.85187,2.792876,0.5876524,-0.59986967
1764918391392,14.195222,-22.029049,48.267105,4.225966,1.5760323,-0.81245077
1764918391445,9.572019,-45.72686,26.982653,6.355442,2.4862216,-0.70249504
1764918391498,7.1275387,-52.272606,16.941372,6.999294,2.388483,-0.408058
1764918391551,5.267244,-57.958836,6.5098343,7.4488907,2.5082128,0.13683382
1764918391604,3.145981,-53.412247,-8.7053175,7.393913,0.79045963,0.61819565
1764918391656,3.1172507,-48.221615,-14.00608,7.007846,1.1398746,0.89919364
1764918391711,4.225766,-42.76044,-21.806389,6.5252624,1.0433578,1.0848967
1764918391764,6.325481,-28.390444,-44.64707,4.9419,0.7965683,1.1142182
1764918391816,7.5441294,-18.404228,-54.329224,3.563788,-0.28710666,0.8136725
1764918391869,8.767567,-9.80665,-63.5469,1.8264871,-0.047647487,0.55833083
1764918391922,10.259154,-14.106636,-66.6857,-2.7464502,-0.7635816,-0.056199603
1764918391976,10.25676,-31.390379,-58.988342,-4.9284606,-1.0983357,-0.24190263
1764918392031,7.807492,-50.747498,-45.815445,-6.736622,-1.2229522,-0.3213151
1764918392083,2.6408045,-78.44363,-15.603012,-8.863655,-1.4318681,0.08307768
1764918392148,6.385336,-78.44363,-2.7389667,-9.027367,-2.4019222,0.71837753
1764918392200,11.798626,-75.71184,19.227835,-8.185595,-3.2876768,1.4184291
1764918392252,15.052346,-61.217342,48.003742,-7.4000216,-0.79290307,2.1160371
1764918392304,26.357767,-36.602554,63.532536,-5.7812285,-1.6859881,1.7849482
1764918392363,25.483883,-2.861071,69.63057,-1.8362609,0.030543262,0.61453044
1764918392415,22.380997,3.2944214,64.05687,-0.14782938,0.63163465,0.030543262
1764918392468,21.674707,-1.9560628,56.591747,1.2437216,0.35063666,-0.6084218
1764918392518,14.008474,-16.129736,44.9248,3.6786306,2.0427334,-1.1178834
1764918392569,10.240001,-28.967447,38.347927,4.8417177,2.3188446,-1.1606439
1764918392622,8.14268,-39.18111,28.902803,5.9192843,2.8002062,-0.84665924
1764918392676,7.4627266,-45.93755,17.448942,6.6620965,2.8185322,-0.42271876
1764918392730,5.547365,-47.83136,-2.078167,7.142236,1.3561208,0.35796702
1764918392782,5.374983,-45.305477,-5.485116,6.922325,0.6206391,0.3408628
1764918392850,4.915296,-40.129215,-17.776947,6.3835416,1.1753048,0.71593404
1764918392901,3.7828386,-32.81732,-27.696125,5.837428,0.7257079,0.68783426
1764918392951,5.841852,-23.211786,-41.50109,4.923574,-0.047647487,0.49357912
1764918393002,6.7851677,-8.171411,-57.468025,1.8802432,1.2168436,0.22602014
1764918393053,8.9758625,-4.331111,-61.509438,0.080634214,0.54244834,0.002443461
1764918393104,6.3111157,-10.022128,-57.03467,-1.8973475,-0.73426,-0.34697145
1764918393156,5.650316,-33.547554,-46.7827,-5.3426275,-1.2302825,-0.37873647
1764918393208,2.5761611,-50.06515,-38.22343,-6.785491,-1.1386528,-0.312763
1764918393264,0.60333884,-64.32023,-23.106441,-8.078082,-1.7690657,-0.010995574
1764918393318,8.8777,-76.79642,3.1052797,-8.455597,-1.1252137,1.097114
1764918393371,5.616797,-67.00652,16.25184,-7.891157,-1.6933185,0.86620694
1764918393423,4.9344497,-56.223038,33.159695,-7.316944,-0.69027776,1.0958922
1764918393477,15.468937,-21.526268,61.51183,-4.747645,-1.6969837,1.4721853
1764918393530,17.85835,-9.440337,66.57317,-2.9663615,-1.1838568,1.1972959
1764918393583,23.75048,1.496376,66.683304,-1.2840388,-0.4092797,0.81489426
1764918393639,18.930952,-2.0231004,59.759274,1.7397442,0.07086037,-0.37873647
1764918393694,17.702728,-10.6398325,53.93418,3.072652,0.9981538,-0.72204274
1764918393751,12.08593,-23.800758,43.344627,4.43366,1.577254,-0.9089675
1764918393803,8.264784,-41.03422,22.807165,6.2015038,1.4782939,-0.8417723
1764918393855,7.627927,-46.979027,14.121001,6.7231827,1.5125023,-0.7012733
1764918393908,5.183447,-50.570328,6.751649,7.1031413,1.5784758,-0.535118
1764918393961,2.3702598,-51.211975,-7.3430166,7.211875,1.921782,0.095294975
1764918394016,1.9273324,-47.18493,-14.468161,6.940651,1.926669,0.54733527
1764918394067,3.8115692,-42.765232,-20.245369,6.4812803,1.8020525,0.9773844
1764918394120,4.158728,-26.010607,-48.978184,4.754975,0.8552113,1.1985176
1764918394172,8.008605,-15.19121,-58.562172,3.1520646,-0.1001819,1.1374311
1764918394224,10.951078,-7.2783732,-66.7695,1.2363913,-0.44226643,0.8552113
1764918394279,10.7356,-15.516821,-58.15516,-3.2449162,-1.5125023,0.2761111
1764918394334,7.8290396,-30.652964,-47.7332,-5.1019464,-1.0555751,0.18448131
1764918394387,4.9655743,-45.935154,-36.717476,-6.5264845,-1.3854424,0.1966986
1764918394439,3.6415808,-65.93392,-15.248671,-8.053647,-0.5925393,0.4202753
1764918394491,5.566519,-71.4334,-7.0724716,-8.250346,-1.8020525,0.55955255
1764918394544,5.0278234,-72.23306,2.5498247,-8.29555,-0.27855456,0.90285885
1764918394600,10.065224,-54.707508,40.418915,-7.4415603,-0.6426302,1.1777482
1764918394652,9.296685,-36.140476,57.39859,-6.09277,-0.7415904,0.97249746
1764918394704,14.662091,-18.612524,60.726532,-4.2320743,-0.9627236,0.8723156
1764918394756,8.293514,-2.918532,44.989445,-1.2620476,0.18203785,0.34330627
1764918394808,7.3669586,-0.30645782,34.596214,-0.36896262,1.0152581,0.2443461
1764918394861,3.145981,1.3335704,23.96596,0.2406809,0.88208944,0.10995574
1764918394916,1.9512744,0.8355764,13.608643,0.61086524,0.2919936,0.042760566
1764918394975,1.4149733,0.46686932,10.077195,0.6585127,0.18203785,0.05131268
1764918395028,1.3814543,0.24420857,7.7069354,0.64873886,-0.25534168,-0.007330383
1764918395085,1.0366893,0.9504981,5.2241483,0.43004912,-0.49480084,-0.035430185
1764918395139,0.89303726,0.7469909,4.9583917,0.29810223,-0.19303341,-0.002443461
1764918395191,1.0151415,1.2234371,4.498705,0.1563815,-0.13072516,0.04520403
1764918395250,1.4317327,1.2018893,5.521029,-0.111177474,-0.16126843,0.056199603
1764918395302,2.480393,0.9959879,6.0597243,-0.24312437,-0.056199603,0.08552113
1764918395355,1.8028339,0.20829555,7.7572136,-0.32742378,-0.37995818,0.14294247
1764918395407,3.5817258,-0.38067806,8.544906,-0.35063666,-0.5216789,0.172264
1764918395459,3.3614593,-0.18195933,9.416395,-0.31398472,-0.38240165,0.14294247
1764918395520,3.787627,0.7110779,9.440337,-0.25900686,-0.6609562,0.036651913
1764918395572,4.0701427,0.25617957,9.382876,-0.31520647,-0.46181414,0.0036651916
1764918395625,4.865018,0.39025488,10.16578,-0.39584067,0.073303826,-0.0036651916
1764918395678,3.763685,-0.39264908,11.5616,-0.35796702,0.453262,-0.1600467
1764918395730,3.2249897,-0.5650316,11.417948,-0.25045475,0.15271631,-0.24923302
1764918395784,2.89459,-0.6440403,10.766725,-0.15882497,0.31398472,-0.26633725
1764918395841,0.91937345,-0.36870706,9.23683,0.02076942,0.029321533,-0.29565877
1764918395893,-0.22505496,-0.059855044,9.411607,-0.02443461,0.48258355,-0.204029
1764918395946,0.05267244,-0.21308395,8.937555,-0.019547688,-0.2443461,-0.1966986
1764918396002,-0.36391866,-0.60094464,9.176975,-0.12950343,0.63163465,0.010995574
1764918396054,1.1803415,-0.3184288,9.100361,-0.15271631,0.32375857,0.035430185
1764918396106,0.29448682,-0.36152446,9.916783,-0.1966986,1.2571607,0.118507855
1764918396159,0.46208093,-0.36870706,9.622296,-0.13439035,0.6462954,0.10995574
1764918396211,-1.757344,-0.33039984,10.493786,-0.13072516,0.7415904,0.13927728
1764918396268,-0.58418524,-0.6943185,9.950302,-0.065973446,-0.052534413,0.118507855
1764918396321,0.22026655,-0.7398083,10.323798,-0.04886922,0.037873644,0.26145032
1764918396374,0.93613285,-0.5722142,10.984597,-0.032986723,0.36651915,0.2919936
1764918396427,0.9552865,-0.5530606,11.226412,0.034208454,0.2443461,0.26267207
1764918396479,2.1404164,-1.1013328,10.953473,0.14905111,0.08674286,0.12095132
1764918396536,0.91697925,-0.91219085,10.682928,0.204029,0.004886922,0.010995574
1764918396589,0.89303726,-0.5410896,10.081984,0.26145032,-0.408058,-0.087964594
1764918396641,0.48602295,0.18435353,9.0429,0.26145032,-0.267559,-0.059864793
1764918396695,1.0390835,-0.050278235,9.287108,0.21991149,-0.13194689,-0.018325957
1764918396750,1.0941502,-0.36870706,9.018958,0.20647246,0.04886922,-0.012217305
1764918396802,0.33997664,0.076614454,9.284714,0.18936823,-0.13194689,-0.0842994
1764918396855,0.34715924,0.3854665,8.870518,0.17592919,-0.034208454,-0.058643065
1764918396907,0.56982,0.2873042,8.875306,0.14172074,0.0061086523,-0.042760566
1764918396960,0.15322891,0.36391866,8.611943,0.09896017,0.06963864,-0.059864793
1764918397013,0.02633622,0.58897364,7.9966335,0.05375614,0.10751228,-0.02565634
1764918397073,0.4309563,0.47644615,7.9391727,-0.07696902,0.47525316,0.037873644
1764918397125,0.2753332,0.29448682,8.9758625,-0.16371189,0.19792034,0.018325957
1764918397178,0.45968673,0.22026655,9.203311,-0.1685988,0.014660766,-0.014660766
1764918397236,-0.06703765,-0.107739076,9.354146,-0.16371189,0.14660765,-0.017104227
1764918397288,-0.30166942,-0.05267244,9.854534,-0.15271631,0.111177474,-0.017104227
1764918397343,-0.19632454,-0.093373865,9.753978,-0.13561209,0.111177474,0.0036651916
1764918397399,0,-0.16519992,9.799467,-0.111177474,0.07696902,0.028099801
1764918397454,-0.076614454,-0.33758244,10.208876,-0.10262536,0.042760566,0.015882496
1764918397507,-0.260968,-0.007182605,10.199299,-0.06352998,-0.07819075,0.008552114
1764918397559,1.0414777,-0.038307227,9.212888,-0.056199603,-0.23945917,-0.019547688
1764918397612,1.5849615,-0.17477672,8.726865,-0.052534413,-0.21013765,-0.062308256
1764918397666,-0.5363012,-0.2633622,9.409213,-0.10262536,0.10140363,-0.05131268
1764918397719,-0.47165772,-0.34476504,10.115502,-0.10751228,0.48747048,0.02321288
