t,ax,ay,az,gx,gy,gz
1764917050012,1.4317327,9.433155,2.183512,-0.02076942,0.018325957,-0.015882496
1764917050065,1.6950948,9.406818,2.3989902,-0.010995574,0.007330383,-0.029321533
1764917050122,1.5394717,9.440337,2.4037786,0,-0.02443461,-0.042760566
1764917050183,1.3192052,9.423578,2.4708161,0.009773844,-0.032986723,-0.05009095
1764917050250,1.1851299,9.481039,2.2625206,0.02443461,-0.029321533,-0.047647487
1764917050303,1.3024458,9.488221,2.1523874,0.029321533,0.009773844,-0.035430185
1764917050362,1.1779473,9.500193,2.1811178,0.028099801,0.06963864,-0.032986723
1764917050416,1.1611878,9.502586,1.8315643,0.028099801,0.008552114,-0.037873644
1764917050473,0.8499416,9.545682,1.8794483,0.010995574,0.018325957,-0.034208454
1764917050526,0.21068975,9.5385,2.3223755,0.008552114,0.08674286,-0.010995574
1764917050579,0.4261679,9.504981,2.2385786,0.012217305,0.12461651,0.02321288
1764917050633,0.02873042,9.40203,1.7884687,-0.02076942,1.1716396,0.17592919
1764917050685,-1.1444284,9.6845455,0.81163436,-0.119729586,2.6181684,0.42394048
1764917050737,-2.3127987,9.61272,-1.9249382,-0.13927728,0.6230826,0.28344148
1764917050790,-1.9847932,13.709199,2.4420857,-0.2565634,-0.82833326,0.41905355
1764917050844,-1.0342951,16.25184,-1.0965444,-0.35796702,2.4275784,0.8185594
1764917050897,0.45489833,18.579004,0.1412579,-0.4813618,0.97494096,0.67073005
1764917050953,1.5490485,11.741165,4.757279,-0.37873647,-1.3341297,0.408058
1764917051007,2.3319526,9.605537,4.817134,-0.1685988,-2.5766296,0.24678956
1764917051062,2.5234885,8.0445175,4.8003745,0.021991149,-3.1325169,0.103847094
1764917051131,5.5162406,6.0980315,6.4763155,0.2443461,-1.2009611,0.06841691
1764917051186,7.668628,4.3718123,1.9847932,0.36041048,-0.7770206,-0.17715092
1764917051249,5.281609,4.213795,0.50757074,0.31642818,-0.4801401,-0.28710666
1764917051304,1.9776106,6.615179,-1.1851299,0.08674286,0.13439035,-0.3481932
1764917051359,2.882619,6.849811,-1.1731589,-0.05131268,0.39461896,-0.26267207
1764917051412,3.1986535,5.437232,-0.47884035,-0.18325958,0.44348818,-0.2284636
1764917051493,1.8148049,7.2448545,-1.5753847,-0.43493605,0.54611355,-0.087964594
1764917051547,1.8100165,9.227253,1.1444284,-0.55955255,0.40317106,0.096516706
1764917051599,7.8984714,7.0605006,4.3143516,-0.5448918,0.61453044,0.17959438
1764917051654,-1.5945383,7.0581064,3.8905778,-0.4288274,-0.10140363,-0.15149458
1764917051707,3.8402996,11.580753,-1.4173675,-0.13072516,-6.338338,-0.19303341
1764917051758,1.5275006,11.942278,-0.06703765,-0.19792034,-3.6138787,0.16493362
1764917051811,2.9735985,9.018958,1.1827357,-0.25289822,-0.39095375,0.516792
1764917051863,6.3661823,6.5505357,1.5298948,-0.062308256,-1.3048081,0.33108896
1764917051916,7.2592196,6.7923503,0.8355764,0.03176499,-0.95539325,0.25778514
1764917051975,6.208165,7.3190746,0.94810385,0.11484267,-0.42638394,0.23457226
1764917052028,10.103531,7.833828,0.31124622,0.28344148,-0.68539083,0.014660766
1764917052081,8.219295,8.054094,2.4779987,0.3323107,0.32375857,-0.010995574
1764917052134,3.9719806,12.2080345,2.6072857,0.54611355,-0.7476991,-0.037873644
1764917052187,6.8186865,11.84651,-1.2449849,0.40317106,-0.45814893,0.02565634
1764917052239,6.105214,9.279925,-1.958457,0.12950343,1.0030408,-0.17837265
1764917052292,1.958457,8.820239,-1.1683705,0.035430185,1.5662584,-0.3286455
1764917052344,-2.1811178,10.565612,-0.5554548,0.10751228,1.2657127,-0.16737708
1764917052397,-1.1899183,8.441956,-0.92416185,0.15393804,-0.79412484,-0.058643065
1764917052450,-1.1252748,10.350134,-0.076614454,0.21746802,-1.0922271,0.19181168
1764917052502,2.5785553,8.717288,-2.0518308,0.5045747,-1.2449434,0.59742624
1764917052555,2.6527755,6.0357823,-1.7860745,0.4813618,-0.58032197,0.7318166
1764917052607,5.2409077,3.394978,-1.9752164,0.43004912,-0.50335294,0.87598073
1764917052661,4.8865657,4.912902,-1.922544,0.41783184,-0.63041294,0.82344633
1764917052713,5.9041014,5.8801594,-3.193865,0.4092797,-0.6169739,0.85154617
1764917052765,7.5968018,5.556942,-3.4955344,0.3323107,-0.21991149,0.91751957
1764917052817,10.067618,4.450821,-4.060566,0.30665436,-0.5571091,0.7733554
1764917052875,9.751583,5.2863975,-4.060566,0.35430184,-0.6560693,0.4251622
1764917052927,8.453926,6.069301,-4.4939165,0.41538838,-1.2168436,0.25778514
1764917052979,7.505822,5.865794,-6.31351,0.38728857,-0.6414085,0.28955013
1764917053031,6.6750345,4.5058875,-5.6359506,0.14538592,-0.14294247,0.45448375
1764917053085,8.078036,5.291186,-5.4204726,0.065973446,0.34697145,0.5204572
1764917053143,8.013393,3.9193082,-5.341464,0.06963864,-0.12095132,0.17348573
1764917053196,7.103596,4.697424,-4.987122,0.081855945,-0.18692477,0.10751228
1764917053248,6.133945,4.841076,-4.606444,0.07819075,0.23701571,0.12217305
1764917053300,4.9200845,5.2049947,-4.3502645,0.06352998,0.035430185,0.103847094
1764917053351,5.449203,4.912902,-4.7907977,0.030543262,-0.087964594,0.18325958
1764917053406,6.8162923,3.2154129,-4.9200845,0.008552114,1.4184291,0.3555236
1764917053459,9.82341,3.1148565,-6.2632318,0.02687807,1.8887954,0.37995818
1764917053511,11.432313,3.8857894,-3.5936968,0.052534413,3.2632422,0.46914452
1764917053562,9.765948,3.4859576,0.019153614,0.017104227,3.8154643,0.45937067
1764917053614,11.779472,3.5649664,-0.39504328,0.035430185,3.6077702,0.37995818
1764917053665,13.306973,5.81791,2.2266076,-0.089186326,1.7470746,0.13561209
1764917053717,12.650962,4.5298295,3.478775,-0.14782938,2.430022,0.008552114
1764917053768,9.631873,4.84347,5.48751,-0.18203785,3.7751472,-0.009773844
1764917053820,6.291962,6.160281,6.6534867,0.03176499,2.6780334,-0.064751714
1764917053871,6.0142345,6.7923503,4.000711,0.02321288,2.910162,-0.02565634
1764917053923,2.5115175,6.179435,4.996699,-0.12095132,3.1752775,-0.040317107
1764917053978,4.146757,6.0357823,5.9926867,-0.25411993,2.4911084,-0.073303826
1764917054030,1.6831238,3.809175,11.257536,-0.22968534,2.8478537,-0.13072516
1764917054082,1.2234371,3.9719806,11.836933,-0.06352998,1.9511036,-0.23579398
1764917054134,-1.0366893,3.5362358,12.670115,0.10873401,2.992018,-0.105068825
1764917054185,-6.670246,4.122815,9.078813,0.5216789,1.3377949,0.02321288
1764917054238,-5.1259856,4.656722,7.28795,0.5852089,-0.61819565,0.037873644
1764917054293,-4.441244,4.9775453,6.409278,0.52290064,-0.047647487,0.22602014
1764917054348,-0.9576807,6.2512608,3.7349546,0.22357668,0.31764993,0.38973203
1764917054400,-0.81642276,5.707777,7.711724,0.10140363,-0.4288274,0.13561209
1764917054452,-1.328782,4.63278,7.5848308,0.14172074,-0.50579643,0.064751714
1764917054504,-2.1428106,5.3127337,7.551312,0.17959438,0.7293731,0.1563815
1764917054561,-3.25372,6.3685765,6.0956373,0.17592919,0.71593404,0.1966986
1764917054613,-2.6408045,6.7803793,5.695806,0.13072516,-0.18325958,0.12950343
1764917054665,-0.62249243,5.8634,5.710171,-0.010995574,-0.02443461,0.15027285
1764917054718,-1.1899183,5.3318872,4.8482585,-0.06352998,0.84421575,0.20769419
1764917054770,-2.815581,5.4300494,5.6000376,-0.1600467,0.8210029,0.19058995
1764917054822,-1.7357962,5.245696,7.668628,-0.2883284,-0.13316862,0.13683382
1764917054875,-1.9057846,4.685453,9.009381,-0.2565634,-0.013439035,0.12095132
1764917054927,-1.6065093,4.8482585,10.694899,-0.15149458,-0.09285152,0.07941248
1764917054979,-2.1667526,6.5457473,11.839328,0.12461651,-0.14294247,0.010995574
1764917055031,-2.9496565,6.691794,12.801797,0.24678956,-0.015882496,0.032986723
1764917055083,-2.932897,6.789956,13.910312,0.40439278,-0.13194689,0.05497787
1764917055134,-2.8898015,6.0501475,14.501679,0.61575216,-0.18448131,0.08552113
1764917055187,-2.5761611,5.3223104,13.752295,1.1007792,-0.09773844,0.14049901
1764917055248,-2.834735,5.2624555,12.902353,1.3182472,0.19914207,0.18936823
1764917055301,-3.3973722,5.722142,9.866506,1.6627752,-0.29810223,0.24556783
1764917055354,-3.217807,6.0166287,8.734048,1.7641789,-0.51923543,0.2687807
1764917055407,-2.3774424,6.0118403,8.030152,1.8374827,-0.5644395,0.28710666
1764917055460,-0.7757214,5.073313,6.3302693,1.9572122,-0.50701815,0.29810223
1764917055514,-1.541866,4.5082817,5.437232,2.0158553,-0.09896017,0.31642818
1764917055566,-0.30645782,4.000711,4.3598413,2.0781636,-0.26389378,0.28221974
1764917055619,0.088585466,3.655946,1.8962077,2.1697934,-0.118507855,0.26389378
1764917055670,-0.031124622,3.4117374,0.94331545,2.1991148,0.14538592,0.27855456
1764917055722,-0.48841715,3.157952,-0.33039984,2.211332,0.15393804,0.29565877
1764917055774,-0.06464344,2.9712043,-1.3359646,2.2174408,-0.06719518,0.28710666
1764917055825,0.12689269,2.5306711,-4.644751,2.1917844,-0.23090707,0.2883284
1764917055876,1.3862427,2.5498247,-6.4140663,2.1429152,-0.30909783,0.22602014
1764917055929,1.0965444,2.9855695,-8.5473,2.0451767,-0.007330383,0.20158553
1764917055983,1.6950948,3.6535518,-12.70124,1.609019,-0.14905111,0.05131268
1764917056036,1.8866309,4.355053,-14.578294,1.3402383,0.028099801,0.0012217305
1764917056100,1.2880806,4.3981485,-16.019604,0.7305948,-0.02443461,-0.12950343
1764917056153,1.2354081,4.6016555,-16.12016,0.39706242,0.05375614,-0.172264
1764917056205,0.50278234,4.441244,-16.721106,0.05497787,-0.10262536,-0.21746802
1764917056260,0.0023942017,4.1539397,-16.577452,-0.6792821,-0.07941248,-0.20891592
1764917056316,0.076614454,3.715801,-15.334862,-1.0384709,-0.119729586,-0.19914207
1764917056368,-0.011971008,3.4979286,-14.504074,-1.3634512,-0.13194689,-0.18692477
1764917056425,-0.24181437,2.5498247,-12.186486,-1.9315559,-0.14294247,-0.1600467
1764917056478,-0.78769237,1.8195933,-10.788273,-2.175902,-0.1600467,-0.14538592
1764917056535,-0.5267244,1.4077905,-9.888053,-2.39337,-0.09285152,-0.12339478
1764917056587,-1.0295067,0.5650316,-6.9743094,-2.8393016,-0.021991149,-0.11484267
1764917056641,-0.93852705,0.33279404,-4.6351743,-3.0091221,0.009773844,-0.09896017
1764917056694,-0.91458505,-0.37588966,-1.30484,-3.1312952,0.15882497,-0.105068825
1764917056753,-0.8738836,-1.3215994,4.2161894,-3.1752775,0.1600467,-0.14905111
1764917056811,-1.1061212,-1.127669,6.2823853,-3.0775392,0.09773844,-0.19058995
1764917056868,-1.1109096,-0.047884032,11.149797,-2.7867672,0.13072516,-0.21624629
1764917056920,-2.3343468,-0.0047884034,12.129025,-2.6267207,-0.10995574,-0.2125811
1764917056976,-3.679888,0.770933,13.76666,-2.42147,-0.037873644,-0.12217305
1764917057033,-2.528277,1.6376339,19.536686,-1.9315559,-0.15515977,0.09407325
1764917057086,-1.0295067,2.6312277,23.374592,-1.5076154,-0.31887165,0.14660765
1764917057142,0.24899697,4.987122,27.7895,-0.21868975,-0.010995574,0.13805555
1764917057197,-0.4189853,5.683835,29.063215,0.25900686,0.1563815,0.12095132
1764917057251,-0.9744401,4.733337,30.09751,0.9407325,0.23701571,0.10262536
1764917057304,-3.1675289,0.107739076,22.316355,2.4104743,0.7770206,0.35430184
1764917057360,-2.9496565,-1.4030021,16.788143,2.8344147,0.49357912,0.46303585
1764917057419,-1.0103531,-2.6791117,7.290344,3.19116,0.15760323,0.5681047
1764917057472,-0.033518825,-2.9855695,4.331111,3.209486,0.118507855,0.57910025
1764917057525,0.39983168,-3.0885203,2.2290018,3.196047,0.07696902,0.5644395
1764917057587,0.8451532,-0.6751649,-4.6351743,2.9932396,-0.15027285,0.44959682
1764917057639,1.1468226,0.41180268,-6.9048777,2.7806585,-0.24312437,0.39095375
1764917057694,0.5434838,1.4700398,-8.655039,2.5082128,-0.15882497,0.344528
1764917057752,1.6687586,3.9600096,-11.2312,1.9010127,-0.20769419,0.23457226
1764917057805,2.0566192,4.8722005,-12.521675,1.577254,-0.16493362,0.16615535
1764917057858,1.8698715,6.126762,-14.276625,0.893085,0,0.018325957
1764917057910,2.0829554,6.435614,-15.296555,0.5326745,-0.0012217305,-0.04642576
1764917057963,2.1332338,6.505046,-15.478514,0.1563815,-0.028099801,-0.112399206
1764917058023,1.7860745,5.659893,-16.376339,-0.6560693,-0.12705997,-0.23945917
1764917058093,1.7501614,4.733337,-15.701175,-1.0983357,-0.19303341,-0.312763
1764917058145,1.1085154,2.099715,-14.432248,-1.9242256,-0.22113322,-0.41783184
1764917058201,1.4197617,0.8690952,-13.567941,-2.3335052,-0.21135938,-0.4654793
1764917058253,0.91697925,-0.8619126,-12.617443,-2.7464502,-0.14538592,-0.52412236
1764917058306,1.2306197,-5.116409,-8.295909,-3.5686748,-0.04153884,-0.6817256
1764917058358,-0.37828386,-7.8649526,-5.1666875,-3.9156463,0.08307768,-0.7892379
1764917058411,-0.89782566,-11.042058,-0.7015011,-4.2039747,-0.28099802,-0.8368854
1764917058463,-4.8841715,-14.55914,12.65575,-4.361578,-0.18570304,-0.657291
1764917058523,-6.567295,-13.239936,22.68506,-4.119675,-0.7098254,-0.49846604
1764917058578,-4.331111,-4.6160207,32.563538,-2.5815165,-0.7415904,-0.111177474
1764917058636,-4.2042184,-0.9816227,31.507694,-1.7605137,-0.47158796,0.04520403
1764917058688,-3.1555579,1.2258313,30.779858,-1.0299188,-0.2883284,0.16126843
1764917058740,-1.745373,2.1452048,28.002583,0.23090707,0.037873644,0.25534168
1764917058792,-1.6304513,1.2761095,26.73605,0.77457714,0.25534168,0.26389378
1764917058846,-2.2864625,-0.14844051,24.978706,1.3072516,0.41905355,0.27977628
1764917058904,-5.118803,-3.13401,21.732168,2.2638667,0.85154617,0.47891834
1764917058971,-7.2209125,-4.4603977,19.603724,2.6450465,0.784351,0.6646214
1764917059023,-6.203377,-6.43322,13.273455,3.2485814,0.3652974,1.1582005
1764917059074,-2.9831753,-6.6103907,8.882488,3.4379497,0.017104227,1.2779301
1764917059125,-0.62488663,-6.481104,5.1475334,3.517362,-0.009773844,1.2986995
1764917059176,0.45010993,-4.7381253,-1.460463,3.4208453,0.019547688,1.2290609
1764917059227,1.7477672,-3.5098996,-3.8019924,3.296229,-0.44593164,1.1044444
1764917059280,1.5155296,-2.2266076,-6.145916,3.1154127,-0.31031954,1.033584
1764917059332,2.0757728,-0.7422025,-7.6973586,2.878397,-0.35918877,0.956615
1764917059385,3.8618474,1.1109096,-9.847352,2.32984,-0.18325958,0.77579886
1764917059437,4.72376,2.291251,-11.693281,2.0769417,-0.3005457,0.6059783
1764917059489,5.506664,3.8953662,-14.690822,1.7825048,0.0720821,0.48380527
1764917059540,5.8466406,6.0405707,-17.068264,0.97127575,-0.04520403,0.13683382
1764917059592,5.391742,6.05733,-16.745047,0.52412236,-0.10262536,-0.013439035
1764917059644,5.5401826,5.7628436,-16.122555,0.112399206,-0.1160644,-0.14660765
1764917059699,4.4101195,4.0174704,-14.647726,-0.6267477,0.037873644,-0.3933972
1764917059752,3.5817258,3.3973722,-13.819332,-1.0458013,-0.05497787,-0.5363397
1764917059805,3.2130187,2.0901382,-13.321339,-1.3793337,0.11728613,-0.61086524
1764917059857,3.9935284,0.8475474,-13.395558,-2.0292943,0.013439035,-0.82833326
1764917059909,5.0996494,1.3000516,-12.411542,-2.4349089,-0.3359759,-0.9822713
1764917059961,3.4141316,0.260968,-10.977415,-2.8918362,-0.15271631,-1.1276573
1764917060015,-0.11492168,-3.5936968,-3.6152446,-3.6774087,-0.38973203,-1.2681563
1764917060067,-0.7254431,-5.085284,0.8762778,-3.907094,-0.13439035,-1.2412782
1764917060120,-2.7222073,-6.9168487,5.3701944,-3.9877284,-0.22357668,-1.2449434
1764917060180,-3.0933087,-7.6949644,10.041282,-3.938859,-0.37384954,-1.1569787
1764917060232,-4.6519337,-7.0365586,20.683508,-3.3096678,-0.28344148,-0.86498517
1764917060284,-4.4340615,-4.4580035,23.602041,-2.7501154,-0.43004912,-0.7476991
1764917060336,-6.679823,0.50996494,25.373749,-1.5442673,-0.19303341,-0.50579643
1764917060389,-6.7085533,2.327164,26.048914,-0.98471475,-0.05131268,-0.35185838
1764917060440,-8.109161,3.3399115,27.820623,-0.42271876,0.09773844,-0.204029
1764917060494,-8.425196,3.383007,30.016108,0.1881465,0.12583824,-0.029321533
1764917060546,-9.667787,0.8523358,28.07441,1.5540411,0.3481932,0.43860126
1764917060598,-9.481039,-1.6424223,24.361002,2.1551325,0.32253686,0.68783426
1764917060659,-6.6175733,-5.81791,17.152061,2.9993484,0.3005457,1.1606439
1764917060711,-4.1419687,-7.4148426,13.024457,3.3108897,0.059864793,1.2974777
1764917060764,-1.8818425,-7.9966335,8.24563,3.5198054,0.24678956,1.3903292
1764917060816,1.3838485,-7.73806,1.1180922,3.6407568,-0.002443461,1.2999213
1764917060870,1.8028339,-6.5840545,-1.7956513,3.5979962,-0.21135938,1.1777482
1764917060925,2.5617957,-5.221754,-5.5138464,3.4892623,-0.10262536,1.0824533
1764917060979,2.789245,-1.1659763,-11.022904,2.9529226,0.062308256,0.9126327
1764917061031,3.8379054,0.59376204,-12.885593,2.5876253,0.07819075,0.8491027
1764917061084,4.5034933,2.8083985,-14.717158,2.1025982,0.12095132,0.70738196
1764917061137,6.766014,5.303157,-18.37071,1.2144,0.20769419,0.42760566
1764917061189,7.019799,6.1076083,-18.935741,0.72204274,0.17348573,0.24312437
1764917061241,6.7468605,5.5617304,-18.461689,0.25167647,0.014660766,0.04642576
1764917061293,6.612785,4.4603977,-17.338808,-0.63041294,-0.21502456,-0.33475417
1764917061344,6.291962,3.071761,-16.563087,-1.065349,-0.040317107,-0.5216789
1764917061396,4.2185836,1.1228806,-17.764977,-1.5222762,0.34574974,-0.70616025
1764917061448,2.5019407,-0.37828386,-17.628508,-2.0329595,0.2565634,-0.829555
1764917061500,2.5234885,-2.087744,-12.943054,-2.9626966,0.034208454,-1.0384709
1764917061552,2.4013844,-3.809175,-8.939949,-3.3609805,0.204029,-1.1362094
1764917061605,1.2306197,-5.329493,-4.5058875,-3.6505308,0.15149458,-1.2779301
1764917061658,-0.5793968,-8.037335,4.297592,-3.9278636,0.112399206,-1.4294246
1764917061710,-2.315193,-8.250419,7.441179,-3.8411207,0.10751228,-1.4782939
1764917061763,-5.0757074,-8.355764,11.15698,-3.6786306,0.07819075,-1.4025466
1764917061814,-7.156269,-6.7085533,18.05707,-3.1312952,-0.48747048,-1.0824533
1764917061866,-6.943185,-4.9296613,21.440077,-2.7269025,-0.5656612,-0.86009824
1764917061917,-7.0724716,-2.6791117,23.69781,-2.2516494,-0.49602258,-0.643852
1764917061970,-6.8162923,-0.15083471,25.711332,-1.7153096,-0.40683624,-0.4605924
1764917062021,-5.449203,2.966416,27.523743,-0.58276546,-0.07452556,-0.19914207
1764917062073,-6.172252,2.9472623,28.038496,-0.004886922,0.21135938,-0.10140363
1764917062128,-7.615956,2.3295584,27.38009,0.59620446,0.4202753,0.014660766
1764917062180,-10.070012,-0.6344634,22.998701,1.6762142,0.5363397,0.44837508
1764917062233,-10.577583,-2.0231004,19.919758,2.0928242,0.5131268,0.73426
1764917062285,-9.234436,-3.1364043,17.85835,2.4055874,0.42760566,1.0115929
1764917062337,-3.952827,-5.5497594,13.546393,3.040887,0.204029,1.3732251
1764917062389,-1.115698,-5.9041014,8.916007,3.2485814,0.1282817,1.3707817
1764917062442,0.7733272,-5.403713,5.1475334,3.3695326,0.08307768,1.3011429
1764917062494,1.4317327,-4.3023806,-1.043872,3.3695326,0.06963864,1.0995574
1764917062546,0.93134445,-3.809175,-3.0214825,3.281568,0.059864793,1.0274754
1764917062597,1.2114661,-2.4540567,-5.568913,3.1764994,-0.20891592,0.95172805
1764917062650,1.1444284,-0.830788,-9.275137,2.9846876,-0.10873401,0.893085
1764917062702,2.018312,2.0326772,-12.847286,2.3408356,-0.096516706,0.79534656
1764917062754,3.3255463,3.2106245,-14.341269,1.9572122,-0.06841691,0.7330383
1764917062807,3.6655228,4.3837833,-15.945383,1.5406022,-0.029321533,0.63285637
1764917062860,4.3382936,5.554548,-17.286137,0.6731735,0.10995574,0.41538838
1764917062912,3.9911342,5.7867856,-17.583017,0.2406809,-0.073303826,0.30298916
1764917062965,4.367024,5.9400144,-17.37951,-0.19792034,-0.12095132,0.19914207
1764917063017,4.876989,4.0916905,-16.452953,-1.0531317,-0.039095376,-0.06719518
1764917063069,4.7907977,2.992752,-15.710752,-1.4624114,-0.06719518,-0.22479841
1764917063121,4.9296613,1.9560628,-14.542381,-1.8668042,0.058643065,-0.37384954
1764917063174,3.9791632,0.02873042,-10.893618,-2.5802948,0.1966986,-0.7305948
1764917063229,2.695871,-0.59855044,-8.659827,-2.9211576,0.9602802,-0.86620694
1764917063282,1.1228806,-1.0726024,-6.3781533,-3.2058208,0.46792278,-1.102001
1764917063336,0.37828386,-3.1914709,-0.7206547,-3.5515707,0.13683382,-1.3622295
1764917063389,-1.6328455,-5.2528787,2.219425,-3.6407568,0.548557,-1.4049901
1764917063442,-3.181894,-7.0102224,7.0221934,-3.6505308,0.02076942,-1.4587462
1764917063494,-5.6407394,-7.4627266,15.298949,-3.259577,-0.29932398,-1.2205088
1764917063546,-6.301539,-5.5138464,19.120094,-2.8136454,-0.39584067,-1.0250319
1764917063597,-6.825869,-3.4261026,23.060951,-2.4654522,-0.32742378,-0.893085
1764917063648,-6.9479733,-0.7685388,24.557327,-1.8704693,-0.21380283,-0.6976081
1764917063700,-7.5704656,3.0621839,23.72175,-0.64996064,0.24556783,-0.34697145
1764917063753,-7.8649526,3.3566709,22.582111,-0.18081611,0.07086037,-0.21991149
1764917063806,-8.726865,3.0190883,22.98673,0.24678956,0.19914207,-0.029321533
1764917063859,-8.990228,1.1348516,22.383392,1.1728612,0.31887165,0.39828414
1764917063911,-8.568848,-0.47884035,21.720198,1.6786577,0.11728613,0.59742624
1764917063966,-7.8865004,-1.2378023,18.351557,2.1184807,0.54000485,0.8503244
1764917064018,-4.951209,-2.7700913,12.164939,2.7623327,-0.17715092,1.1191051
1764917064071,-4.4556093,-2.954445,9.720459,2.9394836,-0.35308012,1.1655309
1764917064122,-2.4899697,-3.2154129,7.079654,3.0946434,-0.65240407,1.1386528
1764917064174,-0.050278235,-2.5570073,2.348712,3.209486,-0.5143485,1.0030408
1764917064227,0.6560113,-1.6783354,-0.12928689,3.2070425,-0.3652974,0.91874135
1764917064279,0.2633622,-1.0510546,-1.3694834,3.136182,-0.2773328,0.8503244
1764917064333,1.4628572,0.9935937,-6.3781533,2.9150488,-0.119729586,0.75869465
1764917064386,2.6791117,1.8267759,-9.639056,2.6939158,0,0.71593404
1764917064438,4.3885717,2.837129,-11.779472,2.398257,-0.04520403,0.625526
1764917064489,3.9145198,3.8235402,-14.705187,2.0158553,-0.06352998,0.5155703
1764917064542,4.096479,4.8147397,-16.51999,1.1520919,0.080634214,0.28588495
1764917064594,3.799598,5.2409077,-17.04911,0.70249504,0.05375614,0.17592919
1764917064646,4.5178585,5.9902925,-18.021156,0.24678956,0.009773844,0.061086524
1764917064700,4.975151,5.0876784,-17.848774,-0.6939429,0.04886922,-0.1966986
1764917064752,4.6926355,4.663905,-17.233463,-1.1582005,-0.03176499,-0.35063666
1764917064803,4.8243165,3.3087866,-16.29733,-1.6065756,0.052534413,-0.47891834
1764917064856,3.8762126,0.9935937,-12.753913,-2.4349089,0.052534413,-0.7892379
1764917064909,2.6001031,-0.31124622,-10.271125,-2.7940977,0.02076942,-0.9334021
1764917064964,1.7070658,-2.195483,-7.1706343,-3.1923819,0.017104227,-1.0592403
1764917065017,0.8643068,-4.225766,-1.3599066,-3.612657,-0.105068825,-1.1899655
1764917065070,-0.7398083,-5.8107276,1.532289,-3.7238345,0.05131268,-1.251052
1764917065122,-0.8810662,-6.7468605,4.4843397,-3.7702603,0.12217305,-1.314582
1764917065174,-4.939238,-8.736442,13.771448,-3.571118,0.062308256,-1.3243558
1764917065226,-5.056554,-8.394072,18.7466,-3.2461379,-0.23335053,-1.2266175
1764917065278,-6.813898,-6.090849,23.43684,-2.724459,-0.50823987,-1.0922271
1764917065332,-7.1514807,-3.1651347,25.419239,-2.1111503,-0.42394048,-0.86376345
1764917065384,-7.0820484,1.0654198,23.592464,-0.87598073,0.021991149,-0.44959682
1764917065436,-6.600814,2.0638018,19.800049,-0.40683624,0.20280726,-0.29565877
1764917065490,-5.659893,2.135628,16.254236,-0.105068825,0.26267207,-0.19058995
1764917065543,-2.2888567,2.336741,8.944737,0.14049901,0.20158553,-0.13439035
1764917065596,-2.5450363,2.2625206,6.6247563,0.08552113,-0.03176499,-0.2003638
1764917065655,-2.9783869,1.115698,7.678205,-0.019547688,-0.29077184,-0.14660765
1764917065708,-3.0119057,1.5921441,7.1514807,-0.05497787,-0.19425514,-0.13805555
1764917065760,-2.932897,2.018312,7.7332716,-0.11484267,-0.02443461,-0.16493362
1764917065812,-3.4524388,1.7764976,9.160215,-0.16249016,0.17592919,-0.2687807
1764917065867,-3.5745432,1.4460979,9.622296,-0.13805555,0.23335053,-0.29443705
1764917065922,-4.295198,1.2569559,9.126697,-0.087964594,0.2919936,-0.30787608
1764917065974,-5.1355624,1.0295067,8.743625,-0.057421334,0.19181168,-0.28710666
1764917066026,-5.2887917,1.1947067,8.516175,-0.061086524,0.18448131,-0.2321288
1764917066079,-5.619191,1.0869676,8.341399,-0.064751714,0.0036651916,-0.17837265
1764917066132,-5.48751,0.90261406,8.588001,-0.0842994,-0.20525073,-0.009773844
1764917066187,-5.058948,0.90021986,8.7292595,-0.09407325,-0.12339478,0.040317107
1764917066239,-4.685453,0.6847417,8.755595,-0.07941248,-0.2968805,0.059864793
1764917066291,-4.2042184,0.80924016,8.604761,-0.07819075,-0.16249016,0.10140363
1764917066344,-4.134786,0.7062895,8.645462,-0.087964594,-0.008552114,0.12339478
1764917066397,-3.9935284,0.62249243,8.607155,-0.08307768,0.002443461,0.13194689
1764917066452,-3.6487634,0.5363012,8.248025,-0.061086524,-0.056199603,0.14905111
1764917066504,-3.0573955,0.33758244,7.3310456,-0.07086037,-0.04153884,0.14905111
1764917066555,-3.205836,0.320823,6.4284315,-0.13561209,0.007330383,0.12217305
1764917066609,-2.695871,0.33279404,5.9998693,-0.23701571,0.1563815,0.10140363
1764917066662,-3.490746,0.36152446,7.0485296,-0.36774087,-0.04642576,0.05131268
1764917066713,-3.4811692,-0.16759412,7.7213006,-0.42149702,0.16126843,0.07696902
1764917066764,-3.5673606,0.22505496,8.291121,-0.43127087,0.057421334,0.042760566
1764917066816,-3.394978,0.10055647,11.274296,-0.27000242,0.15393804,-0.04153884
1764917066867,-3.58412,0.39983168,11.267113,-0.15393804,0.3555236,-0.087964594
1764917066919,-3.2704794,0.7517793,9.82341,-0.09162979,0.267559,-0.15882497
1764917066974,-5.695806,0.19871874,8.250419,-0.23823744,0.18203785,-0.015882496
1764917067027,-3.1794999,-0.30645782,9.591172,-0.2846632,0.41905355,-0.0842994
1764917067080,-6.181829,1.0462662,8.032547,-0.32620203,0.312763,-0.09285152
1764917067133,-1.2042835,-0.7422025,5.377377,-0.47403142,-0.63041294,-0.2724459
1764917067185,-3.7804444,-1.6017209,7.1826053,-0.6059783,-0.25411993,-0.31398472
1764917067236,-5.130774,-2.27928,9.572019,-0.57910025,-0.5009095,-0.29077184
1764917067289,-3.9384618,-1.6352397,10.764331,-0.31520647,0.06963864,-0.12339478
1764917067342,-4.367024,-1.8076223,10.733206,-0.21135938,-0.02443461,-0.1282817
1764917067394,-5.0254292,-1.9369092,11.614272,-0.13561209,-0.2724459,-0.13439035
1764917067446,-4.072537,-1.8219875,12.193669,-0.040317107,-0.119729586,-0.087964594
1764917067499,-3.7014358,-0.92176765,12.591106,0.23945917,0.8698721,0.06841691
1764917067552,-4.525041,-1.5490485,11.370064,0.4654793,0.98715824,0.105068825
1764917067605,-4.2281604,-1.9919758,10.342952,0.535118,0.47647488,0.040317107
1764917067659,-5.6886234,-1.6759412,10.117896,0.63407815,0.61453044,0.07696902
1764917067712,-5.674258,-1.1444284,9.387665,0.66828656,0.19303341,0.0720821
1764917067765,-5.8107276,-0.89782566,8.832211,0.6597345,0.42638394,0.15271631
1764917067819,-5.1810527,-0.25617957,7.953538,0.59864795,0.6377433,0.22968534
1764917067874,-4.4196963,-0.19393034,7.383718,0.5729916,0.22113322,0.172264
1764917067928,-4.7884035,-0.05746084,7.6015906,0.5412266,0.44715336,0.1563815
1764917067981,-5.559336,0.6631939,6.885724,0.50701815,0.4129449,0.08674286
1764917068033,-5.0062757,0.81642276,5.896919,0.47036624,0.45937067,0.087964594
1764917068088,-5.3366756,1.091756,6.0956373,0.41050145,0.5216789,0.087964594
1764917068140,-5.351041,1.2186487,5.57849,0.3371976,0.27122417,0.052534413
1764917068194,-5.451597,1.316811,5.746084,0.29443705,0.42760566,0.043982297
1764917068248,-5.57849,1.6184803,5.4204726,0.24678956,0.5009095,0.0061086523
1764917068300,-5.415684,1.7238252,5.12838,0.20769419,0.3848451,-0.034208454
1764917068353,-5.8322754,1.6472107,5.17387,0.16615535,0.38606682,-0.059864793
1764917068408,-6.3422403,1.8339585,5.255273,0.095294975,0.20280726,-0.12950343
1764917068461,-6.555324,1.7836803,5.2026005,0.061086524,0.13439035,-0.14782938
1764917068513,-7.074866,1.7717092,5.4324436,0.035430185,0.14782938,-0.15515977
1764917068567,-6.993463,1.7310078,5.2409077,0.007330383,0.02565634,-0.16371189
1764917068620,-7.599196,1.6807296,5.4899044,-0.061086524,-0.010995574,-0.16615535
1764917068672,-8.109161,1.5993267,5.719748,-0.0842994,-0.06719518,-0.15271631
1764917068728,-8.058883,1.6328455,5.8442464,-0.11362094,-0.056199603,-0.12583824
1764917068781,-8.257602,1.3120226,6.157887,-0.09285152,0.05009095,-0.032986723
1764917068834,-7.9702973,1.4820108,5.791574,-0.089186326,-0.04886922,-0.012217305
1764917068888,-7.2783732,1.8219875,5.142745,-0.17592919,-0.32253686,0.004886922
1764917068945,-6.244078,1.8602947,4.8817773,-0.27000242,-0.5497787,-0.014660766
1764917068997,-5.865794,1.0079589,5.473145,-0.35918877,-0.6743952,-0.0720821
1764917069050,-6.931214,-0.17717093,7.477092,-0.3555236,-0.49968776,-0.05497787
1764917069102,-9.588778,0.49320555,6.83784,-0.26267207,-0.22113322,-0.010995574
1764917069154,-7.9822683,1.2569559,7.8146744,-0.22479841,-0.6365216,0.02443461
1764917069208,-11.2312,2.111686,9.507375,-0.09285152,-0.82833326,0.19058995
1764917069260,-11.437101,-0.10295067,11.422736,-0.010995574,-1.2669345,0.3494149
1764917069312,-7.314286,-1.1947067,13.211205,0.16615535,-2.660929,0.45204028
1764917069363,-6.9120603,-1.3862427,14.324509,0.3555236,-1.6187929,0.6792821
1764917069416,-3.4404678,1.091756,13.383588,0.77946407,-1.863139,0.65240407
1764917069469,-0.16998832,2.1906946,11.334151,1.0042624,-3.5430183,0.3726278
1764917069522,4.4077253,0.6919243,11.0061455,1.1838568,-4.148997,0.06841691
1764917069575,5.647922,2.932897,10.266336,1.2681563,-1.2559389,-0.23090707
1764917069630,3.490746,2.707842,11.384429,1.2852604,-0.49968776,-0.31520647
1764917069683,3.5338416,3.1292217,10.263943,1.3500122,-0.98837996,-0.38973203
1764917069736,5.45878,4.4819455,9.44752,1.2632693,-2.2369885,-0.80878556
1764917069787,5.3965306,4.733337,9.406818,1.2803736,-2.5827382,-1.0042624
1764917069839,8.789114,3.6774938,8.034941,1.2632693,-1.9706513,-1.1276573
1764917069893,1.6136919,3.5075054,5.5377884,1.3720033,0.7489208,-1.1301007
1764917069946,0.5602432,3.8762126,3.1842883,1.3548992,-4.1734314,-1.6639969
1764917069999,3.4284968,4.3406878,1.1013328,0.9492846,-4.102571,-1.8289305
1764917070051,2.9592333,6.799533,0.17717093,0.4373795,-1.7250835,-1.5063937
1764917070104,4.606444,7.929596,0.6799533,0.26633725,-1.0128145,-1.4135422
1764917070156,4.855441,8.063671,2.8060043,0.16982053,0.593761,-1.2779301
1764917070207,2.920926,4.903325,2.4420857,0.2003638,-0.6084218,-1.5406022
1764917070258,3.9671922,3.58412,2.4899697,0.16371189,-2.3738225,-1.8704693
1764917070308,2.030283,3.5242648,2.0685902,0.059864793,-1.7287487,-1.9877555
1764917070359,0.39025488,4.2544966,2.030283,-0.080634214,-2.0708332,-2.1233675
1764917070414,-4.24492,5.207389,2.2026656,-0.25534168,-0.75625116,-1.8716911
1764917070466,-4.1156325,5.81791,3.976769,-0.3042109,-0.47525316,-1.6896533
1764917070518,-3.9624038,5.391742,4.5753193,-0.24923302,-0.47647488,-1.6566665
1764917070573,-7.690176,4.477157,3.323152,-0.25045475,-0.16615535,-1.5173893
1764917070625,-8.465898,5.521029,5.4300494,-0.24190263,-0.35185838,-1.3548992
1764917070678,-11.161768,5.8921304,5.913678,-0.14049901,-0.30298916,-1.1557571
1764917070733,-12.993333,6.054936,5.580884,0.08674286,-0.1881465,-0.5571091
1764917070785,-13.096283,5.4204726,5.8203044,0.19303341,-0.18081611,-0.25778514
1764917070837,-12.804191,4.486734,5.60722,0.2919936,-0.13927728,0.03176499
1764917070889,-13.699622,1.7597382,6.327875,0.50579643,-0.061086524,0.6096435
1764917070942,-15.286978,0.81642276,7.3789296,0.675617,-0.15027285,0.9651671
1764917070995,-15.787366,-0.18674773,6.409278,0.8588765,-0.14172074,1.3988814
1764917071048,-12.51928,-1.2976574,4.5298295,1.1276573,-0.12461651,2.375044
1764917071101,-10.340557,-2.4732103,3.8426938,1.2547172,0.056199603,2.878397
1764917071154,-6.9000893,-4.7046065,2.96881,1.4001031,-0.05009095,3.3023374
1764917071207,0.91219085,-8.59279,-0.5363012,1.6530013,-0.63041294,3.8460076
1764917071264,5.145139,-9.588778,-3.1747115,1.72264,-0.48991394,3.9828415
1764917071320,8.48984,-10.54167,-4.429273,1.7519615,-0.4728097,3.997502
1764917071383,18.392258,-9.524135,-8.0445175,1.6969837,-0.3726278,3.6688566
1764917071434,22.962788,-5.959168,-12.46182,1.5491543,-0.75747293,3.1581733
1764917071485,27.420792,1.1947067,-12.861651,0.96883225,-0.46670106,1.9853121
1764917071538,27.600357,2.944868,-12.77546,0.6462954,-0.26511553,1.1850786
1764917071590,27.593174,6.4858923,-12.691663,0.47158796,-0.38606682,0.71593404
1764917071644,26.585217,5.8634,-14.563929,-0.05497787,-0.010995574,-0.3481932
1764917071699,26.762386,3.3518825,-14.954184,-0.48624873,0.40561453,-1.0225884
1764917071751,25.19179,0.9576807,-13.515268,-0.83077675,0.5729916,-1.6126842
1764917071802,21.509508,-3.9695864,-9.464279,-1.2913691,0.48380527,-2.7036896
1764917071854,18.148048,-5.5377884,-7.007828,-1.3793337,0.4642576,-3.1178563
1764917071906,13.974956,-6.7348895,-4.987122,-1.3720033,0.81489426,-3.378085
1764917071959,10.081984,-7.1730285,-3.6248214,-1.2632693,0.8723156,-3.5246925
1764917072013,3.4045548,-6.31351,-0.7757214,-0.98715824,0.6450737,-3.6383133
1764917072069,1.1611878,-6.2752028,0.2681506,-0.8894198,-0.029321533,-3.7091737
1764917072123,-2.5306711,-6.1530986,-0.10295067,-0.8503244,-0.16982053,-3.5992181
1764917072177,-6.6391215,-3.3399115,1.5562311,-0.8344419,-0.21868975,-3.1557298
1764917072228,-8.238448,-2.3175871,2.3918076,-0.8197812,-0.38728857,-2.9089403
1764917072279,-11.070788,-1.1300632,2.7581203,-0.7892379,-0.0720821,-2.605951
1764917072332,-14.78659,1.4389153,4.4915223,-0.5925393,0.23090707,-1.8325957
1764917072383,-14.997279,2.0685902,4.211401,-0.46792278,0.13927728,-1.4489723
1764917072435,-16.141708,2.6144683,4.5274353,-0.3726278,0.25045475,-1.0861185
1764917072489,-17.54471,3.083732,4.8626237,-0.1600467,0.16371189,-0.3323107
1764917072541,-17.791313,2.7940333,3.7253778,-0.047647487,-0.04153884,0.064751714
1764917072593,-17.68118,1.9488802,4.175488,0.037873644,0.008552114,0.5119051
1764917072646,-15.741877,1.127669,4.5633483,0.2125811,-0.07452556,1.3903292
1764917072699,-14.918271,0.5386954,4.96318,0.32986724,-0.105068825,1.7947221
1764917072753,-13.764266,-0.29448682,4.9081135,0.4813618,-0.16126843,2.189341
1764917072804,-9.301474,-2.1260512,3.071761,0.7831292,-0.19181168,2.8991663
1764917072857,-5.839458,-2.822764,1.7621324,0.87109387,-0.4972443,3.1447344
1764917072910,-4.1180267,-3.0669725,1.0366893,0.9272934,-0.05497787,3.3805282
1764917072962,-0.19153613,-5.5880666,0.29688102,1.073901,-0.27977628,3.7934732
1764917073015,4.927267,-7.192182,-2.6527755,1.2168436,-0.87598073,3.866777
1764917073069,6.6415157,-8.796297,-4.618415,1.2901474,-0.72692966,3.8960986
1764917073131,12.667721,-10.508151,-8.015787,1.2095132,-0.3933972,3.8887682
1764917073184,19.139248,-8.925584,-11.183316,0.9615019,-0.3115413,3.6737435
1764917073235,25.00983,-6.457162,-10.144233,0.6585127,-0.41416663,3.1655037
1764917073286,29.321789,0.31364042,-6.3111157,0.27366763,-0.24556783,1.8692477
1764917073338,27.547686,1.4197617,-4.675876,0.24923302,0.037873644,1.2156218
1764917073391,26.908432,3.2920272,-5.3678,0.2846632,-0.51923543,0.57543504
1764917073442,25.735273,3.596091,-8.678981,0.20891592,-0.42638394,-0.4373795
1764917073495,24.98589,2.5833437,-9.725247,0.0036651916,-0.1001819,-0.9089675
1764917073547,23.848642,1.4293385,-11.118672,-0.26145032,-0.07086037,-1.3866642
1764917073602,21.806389,0.30645782,-9.7563715,-0.55833083,0.3481932,-1.7935003
1764917073657,18.87828,-2.3942018,-6.528988,-0.9016371,0.2284636,-2.5302038
1764917073709,15.203181,-3.122039,-4.9823337,-0.9505063,0.112399206,-2.8124237
1764917073762,9.916783,-4.213795,-4.1252093,-1.0458013,-0.0012217305,-3.0836477
1764917073815,7.93199,-4.1539397,-3.157952,-1.0641272,0.13683382,-3.1178563
1764917073869,5.4899044,-3.8546648,-2.7748797,-1.0616838,0.5888741,-3.1080823
1764917073927,3.8857894,-3.5290532,-1.6328455,-0.95294976,0.064751714,-3.2779028
1764917073980,0.32561144,-2.528277,-1.1683705,-0.9505063,0.26389378,-3.2607987
1764917074033,-2.0231004,-1.3192052,0.047884032,-0.9859365,0.05375614,-3.1532865
1764917074086,-4.560954,-1.541866,1.2330139,-0.98837996,-0.16982053,-2.9455922
1764917074141,-7.144298,-0.9528923,1.9728222,-0.9761627,-0.2125811,-2.7574458
1764917074194,-10.584765,-0.35673606,2.4995465,-0.93218035,-0.039095376,-2.5045476
1764917074249,-14.748282,1.2785037,4.1635165,-0.79168135,-0.059864793,-1.7800614
1764917074301,-14.970943,1.8746599,4.9057193,-0.6658431,0.081855945,-1.269378
1764917074352,-16.33085,2.4253263,5.533,-0.54244834,0.12583824,-0.8894198
1764917074408,-17.417818,2.6479871,6.363788,-0.25900686,0.056199603,-0.0842994
1764917074460,-17.913418,2.1571758,6.751649,-0.11484267,0.09040806,0.34697145
1764917074513,-17.697939,1.3862427,6.6295447,0.05497787,-0.008552114,0.79901177
1764917074565,-15.725117,-0.7613561,6.2464724,0.42638394,-0.20769419,1.7287487
1764917074617,-13.196839,-1.520318,5.566519,0.6035349,-0.28344148,2.162463
1764917074671,-11.901577,-1.5466543,4.8482585,0.77091193,-0.24190263,2.5558603
1764917074725,-6.2105594,-2.0278888,3.0190883,1.0555751,-0.4288274,3.1728342
1764917074778,-3.5194764,-2.9376855,2.0901382,1.1643091,-0.2968805,3.3988543
1764917074830,-0.7469909,-3.7493198,0.878672,1.251052,-0.21991149,3.585779
1764917074882,3.3039982,-5.494693,-1.5107412,1.2950343,-0.2443461,3.8337903
1764917074934,8.403648,-7.1490865,-3.7301662,1.3072516,-0.24556783,3.8814378
1764917074992,12.354081,-7.3166804,-5.9041014,1.219287,-0.19181168,3.781256
1764917075043,21.81836,-4.912902,-7.723695,0.88697636,-0.4251622,3.0787609
1764917075095,23.736116,-1.9393034,-6.6774287,0.72204274,-0.47891834,2.4740043
1764917075147,25.536556,1.8890251,-7.431602,0.60231316,-0.50946164,1.8729129
1764917075201,26.82703,6.528988,-8.631097,0.3213151,-0.29565877,0.73914695
1764917075253,27.511772,7.098808,-9.090784,0.14538592,-0.27488935,0.16126843
1764917075308,27.65303,6.933608,-9.730036,-0.059864793,-0.08552113,-0.40317106
1764917075364,24.9811,3.4476504,-8.9758625,-0.53878313,0.13927728,-1.5515977
1764917075417,21.703438,0.9768343,-7.632715,-0.74281216,0.21624629,-2.0659463
1764917075471,18.452112,-0.8331822,-6.411672,-0.893085,0.29932398,-2.4862216
1764917075527,10.99178,-2.3511062,-3.6272156,-1.0494665,0.27366763,-3.0079005
1764917075580,8.248025,-2.597709,-2.9400797,-1.0592403,0.26511553,-3.0714304
1764917075633,4.9057193,-2.2218192,-2.0949266,-1.0445796,0.27488935,-3.0885346
1764917075685,0.8331822,-1.7956513,-0.8451532,-1.028697,0.3408628,-3.0042353
1764917075737,-0.2777274,-1.4867992,0.074220255,-1.0115929,0.3286455,-2.9443705
1764917075792,-1.8435353,-1.0295067,1.352724,-0.956615,0.43371433,-2.8637362
1764917075846,-7.7667904,0.19153613,2.9783869,-0.77213365,0.6988298,-2.5876253
1764917075898,-9.251195,0.9504981,3.7469256,-0.64996064,0.3494149,-2.348166
1764917075949,-13.065159,2.1140802,4.685453,-0.5290093,0.47525316,-2.0244074
1764917076000,-16.347609,3.952827,5.0781016,-0.2284636,0.20525073,-1.2705997
1764917076051,-16.859968,3.86903,4.8985367,-0.07452556,0.09040806,-0.8246681
1764917076103,-17.594988,3.6846764,4.5801077,0.043982297,0.0842994,-0.37018433
1764917076156,-17.221493,3.4644098,4.4101195,0.14049901,0.07819075,0.10995574
1764917076210,-15.717935,3.098097,4.2544966,0.3481932,0.06841691,1.0396926
1764917076262,-13.292608,2.5737667,3.8259344,0.4654793,-0.030543262,1.4489723
1764917076315,-11.224017,2.5881321,3.2465374,0.5693264,-0.12095132,1.7959439
1764917076368,-4.6232033,3.193865,1.1659763,0.70249504,-0.08307768,2.2540927
1764917076421,-2.954445,3.5003228,0.16998832,0.68783426,0.3005457,2.4080307
1764917076483,1.412579,3.7229836,-0.61770403,0.593761,0.47403142,2.5607471
1764917076534,1.316811,3.7181952,-0.59136784,0.49235737,0.88086766,2.5961773
1764917076586,4.3358994,4.0821137,-1.6448165,0.44715336,0.42638394,2.5314255
1764917076640,6.8809357,3.8355112,-1.733402,0.2406809,0.47158796,2.42147
1764917076694,7.8865004,3.6583402,-1.7381904,0.15027285,0.37995818,2.3261747
1764917076749,8.640674,3.7972038,-1.0630256,0.07941248,0.4605924,2.2186625
1764917076801,9.768343,3.2920272,-0.09816227,-0.009773844,0.5155703,2.0329595
1764917076854,11.329363,3.406949,-0.47884035,-0.015882496,0.07086037,1.8839084
1764917076911,10.79785,3.1603463,0.009576807,-0.036651913,0.1966986,1.7935003
1764917076963,14.314932,3.6176388,-0.16759412,-0.047647487,-0.039095376,1.4697418
1764917077016,16.577452,3.7588966,-0.6775591,-0.040317107,-0.14538592,1.2449434
1764917077068,17.28853,4.213795,0.10534488,-0.052534413,-0.04520403,0.9896017
1764917077121,18.066647,4.8841715,1.2306197,-0.05009095,0.5644395,0.43493605
1764917077174,17.944542,5.3247046,1.3599066,-0.015882496,0.60231316,0.15393804
1764917077227,17.968483,5.0661306,1.5849615,0.010995574,0.70005155,-0.12095132
1764917077281,15.799337,4.19943,2.2146366,0.0720821,1.070236,-0.60231316
1764917077333,14.824897,4.225766,2.0853498,0.11484267,1.2290609,-0.8038987
1764917077386,13.077129,4.1946416,2.5713725,0.14294247,1.9291124,-0.9285152
1764917077440,8.980651,4.144363,2.6479871,0.2883284,3.2522466,-1.0421361
1764917077496,7.0126166,4.0078936,4.1156325,0.4007276,2.8857274,-1.0494665
1764917077549,6.0716953,4.9224787,4.8937483,0.5131268,1.2498302,-1.0922271
1764917077601,10.429143,4.5082817,6.5481415,0.63041294,1.9608774,-1.0091494
1764917077654,8.7292595,4.036624,8.525752,0.8136725,3.3560936,-1.0348058
1764917077706,4.793192,4.6255975,8.26239,1.1325442,2.960253,-1.0726794
1764917077761,0.5674258,5.2145715,4.654328,1.4721853,3.095865,-0.75625116
1764917077815,0.30406362,5.3678,3.2441432,1.5357152,2.6853635,-0.49235737
1764917077867,-1.7142484,5.4180784,2.1619642,1.5198327,3.4611626,-0.12095132
1764917077925,0.45010993,5.374983,-0.32800564,1.3854424,1.7311921,0.11484267
1764917077978,-1.4796166,5.935226,1.13964,1.3536774,0.9370673,0.0720821
1764917078033,0.557849,5.98311,-0.82360536,1.3988814,0.02687807,-0.034208454
1764917078085,-1.1707647,6.5864487,-1.6136919,1.2180653,1.8118263,0.15393804
1764917078137,-0.9864111,6.8067155,-1.7166426,1.1410962,0.81245077,0.13683382
1764917078190,-0.24420857,7.383718,-2.1452048,1.0445796,0.95294976,0.16493362
1764917078242,-0.0047884034,8.695741,-4.608838,0.91751957,0.09896017,0.0842994
1764917078296,0.011971008,8.578424,-5.932832,0.79779,0.5742133,0.08674286
1764917078355,0.2777274,9.205706,-9.361329,0.33353242,0.35308012,0.029321533
1764917078408,0.31364042,9.021352,-10.314221,0.06841691,0.43371433,0.0061086523
1764917078463,1.1803415,8.588001,-10.778696,-0.22724187,0.38362336,-0.035430185
1764917078521,1.4413095,7.2472486,-10.405201,-0.8784242,0.34208453,-0.19547687
1764917078574,1.2306197,6.2105594,-9.356541,-1.1899655,0.33475417,-0.2883284
1764917078627,1.328782,5.614403,-7.8529816,-1.4831808,1.0250319,-0.35063666
1764917078684,2.585738,4.0318356,-5.0876784,-1.9620992,1.5552629,-0.6646214
1764917078737,0.44532153,3.715801,-2.7988217,-2.1135938,2.0732768,-0.91507614
1764917078789,0.51235914,3.0214825,-2.0518308,-2.2149973,1.0958922,-1.2327261
1764917078846,-1.9991584,-0.17956513,1.9728222,-2.3628268,0.75502944,-1.7104226
1764917078901,-4.309563,-2.111686,4.8745947,-2.3738225,0.31520647,-1.8435913
1764917078955,-10.79785,-2.8802247,11.077971,-2.1355848,0.25411993,-1.7104226
1764917079008,-12.935872,-1.7238252,12.653356,-1.8863518,0.043982297,-1.505172
1764917079061,-14.516045,-0.29688102,14.341269,-1.59558,0.15760323,-1.1936307
1764917079122,-14.068329,2.3104045,15.150508,-1.0005972,0.019547688,-0.61208695
1764917079175,-13.618219,3.2154129,14.877569,-0.7049385,-0.09773844,-0.3848451
1764917079228,-12.828133,3.5553896,14.5088625,-0.4361578,0.0012217305,-0.16493362
1764917079281,-11.784261,3.7828386,13.323732,0.047647487,0.28955013,0.1966986
1764917079334,-11.614272,3.8283286,13.069947,0.25534168,0.24556783,0.344528
1764917079385,-11.647791,3.4380736,12.873623,0.45570546,0.31398472,0.49968776
1764917079438,-12.904747,2.468422,12.682086,0.8539896,0.6169739,0.90408057
1764917079490,-13.069947,1.9201498,11.980585,1.0433578,0.829555,1.1545353
1764917079543,-12.497733,1.8579005,10.326192,1.1863003,1.0910053,1.4355333
1764917079597,-10.196905,1.2042835,7.0102224,1.3084733,0.784351,1.8411479
1764917079653,-9.097966,1.1755531,5.722142,1.3451253,0.30665436,1.9401081
1764917079710,-6.6247563,1.2042835,4.072537,1.423316,-0.97127575,1.8936822
1764917079763,-1.0031705,0.59136784,0.89303726,1.672549,-1.6041322,1.6175711
1764917079818,0.1364695,1.472434,-1.7022774,1.7556267,-1.6334536,1.4489723
1764917079875,1.3239936,1.8890251,-4.367024,1.7446312,-2.0476203,1.2217305
1764917079927,4.4556093,3.4332852,-8.959103,1.473407,-1.187522,0.8857546
1764917079981,4.9296613,5.556942,-10.113108,1.219287,-1.4941764,0.61941737
1764917080038,4.1299977,9.459491,-9.004593,0.49968776,-1.1985176,0.16126843
1764917080090,3.040636,10.627861,-8.197746,0.14782938,-1.0567969,-0.010995574
1764917080143,1.8052281,10.771513,-6.9958572,-0.18570304,-0.56688297,-0.12583824
1764917080195,0.7015011,9.68694,-4.9440265,-0.6976081,-0.07574729,-0.2724459
1764917080247,0.5626374,8.875306,-3.9240966,-0.8723156,-0.13439035,-0.34574974
1764917080304,-0.11252748,8.355764,-2.4971523,-1.0201449,-0.052534413,-0.39706242
1764917080357,-0.320823,7.639898,-1.0773908,-1.2327261,-0.15027285,-0.45204028
1764917080410,-0.4357447,7.0461354,-0.019153614,-1.3170254,-0.27977628,-0.48624873
1764917080462,-1.0654198,6.9240313,0.56982,-1.3988814,-0.18325958,-0.49480084
1764917080516,-1.5658079,5.9064956,2.4636335,-1.5589281,-0.37751472,-0.48502702
1764917080570,-1.6519991,5.1666875,3.301604,-1.6151277,-0.65484756,-0.45814893
1764917080625,-1.6304513,4.8865657,4.220978,-1.6603317,-0.5143485,-0.40194935
1764917080678,-1.5753847,3.9217024,6.2632318,-1.6982054,-0.5717699,-0.34574974
1764917080732,-1.3910311,3.7301662,6.9982514,-1.6884315,-0.38728857,-0.31887165
1764917080786,-1.8028339,3.4117374,6.909666,-1.6896533,-0.15760323,-0.2883284
1764917080842,-2.1667526,2.8275523,9.291897,-1.7275269,0.07696902,-0.267559
1764917080895,-2.870648,1.2401965,12.5264635,-1.6652187,-0.08307768,-0.27488935
1764917080947,-3.9576154,0.7685388,15.923836,-1.455081,0.18081611,-0.21868975
1764917081003,-5.0014873,1.9273324,16.618155,-0.893085,0.16493362,-0.09040806
1764917081055,-3.4261026,2.6862943,15.722723,-0.59620446,-0.14782938,-0.02076942
1764917081106,-4.024653,3.1292217,16.053122,-0.34697145,-0.019547688,0.058643065
1764917081159,-3.715801,3.5529952,18.09777,0.13561209,0.07452556,0.18203785
1764917081213,-4.6136265,3.7660792,20.271706,0.50579643,0.10262536,0.26633725
1764917081266,-5.0541596,3.2800562,21.56218,0.86132,0.17959438,0.3555236
1764917081321,-4.6495395,1.0223241,21.13362,1.7446312,-0.028099801,0.53878313
1764917081374,-3.8498764,-0.21787235,19.10094,2.1649065,-0.40439278,0.5546656
1764917081426,-2.3894134,-1.4796166,15.224729,2.5033257,-0.48747048,0.53878313
1764917081479,-0.7086837,-1.472434,8.291121,2.855184,-1.0115929,0.37018433
1764917081532,0.019153614,-0.81881696,5.827487,2.8820622,-0.3652974,0.34330627
1764917081586,0.33518824,-0.47165772,4.0174704,2.8771753,0.015882496,0.31764993
1764917081641,-0.09816227,-0.23942018,1.3215994,2.846632,0.014660766,0.24678956
1764917081693,0.4261679,-0.45489833,0.22744916,2.8038714,-0.42394048,0.17104226
1764917081747,0.8762778,0.92176765,-1.1611878,2.7550023,-0.33108896,0.13561209
1764917081800,-0.045489833,0.9720459,-5.659893,2.5961773,-0.14782938,0.15393804
1764917081858,0.22984336,1.6711528,-8.049306,2.4312437,-0.15760323,0.1441642
1764917081912,1.0989386,3.8259344,-12.938266,1.9058995,0.15149458,0.111177474
1764917081965,1.1252748,4.5418005,-14.726735,1.5674802,0.08674286,0.07941248
1764917082018,1.5705963,4.939238,-15.765819,1.1948525,0.009773844,0.029321533
1764917082069,1.8028339,5.281609,-17.211916,0.43371433,-0.02321288,-0.096516706
1764917082120,1.4580688,5.511452,-18.53591,0.014660766,0.14660765,-0.1563815
1764917082190,1.5873557,4.572925,-18.497602,-0.97005403,-0.08307768,-0.2932153
1764917082241,0.18914193,3.383007,-18.227058,-1.4819591,-0.14172074,-0.34208453
1764917082294,0.50996494,1.8890251,-16.646885,-1.9816469,-0.14538592,-0.344528
1764917082345,-0.09816227,0.30645782,-14.602236,-2.4288,0.0061086523,-0.36285394
1764917082396,-0.29448682,-2.1499932,-7.8888946,-3.1300735,0.16249016,-0.4447099
1764917082446,-0.24181437,-2.9975405,-4.3718123,-3.376863,0.04153884,-0.49846604
1764917082497,0.6488287,-3.4452562,-1.6304513,-3.549127,-0.11484267,-0.5766568
1764917082548,1.8842367,-5.2049947,2.6671407,-3.7250562,-0.48747048,-0.63285637
1764917082600,-1.685518,-5.837064,4.841076,-3.8508945,-0.10629055,-0.71837753
1764917082652,-0.25857377,-7.6973586,6.2608376,-3.9327505,-0.16982053,-0.6646214
1764917082710,-2.1499932,-10.376471,10.192117,-3.957185,-0.3921755,-0.6426302
1764917082763,-4.259285,-9.859323,23.884556,-3.3988543,-0.72692966,-0.3921755
1764917082815,-4.0773253,-6.670246,30.152576,-2.7122416,-0.65118235,-0.1966986
1764917082869,-2.1188686,0.035913024,32.893936,-1.0506883,-0.3494149,0.02321288
1764917082922,-2.0159178,1.6208745,31.811758,-0.29565877,-0.23701571,0.052534413
1764917082976,-2.348712,1.5490485,31.045614,0.38362336,-0.19792034,0.057421334
1764917083030,-2.966416,-1.7190368,26.788723,1.5711454,0.28588495,0.21013765
1764917083082,-2.858677,-3.6056678,23.18066,2.0977113,0.47891834,0.3200934
1764917083135,-2.135628,-4.9057193,19.86948,2.538756,0.35308012,0.39584067
1764917083194,-1.1587936,-6.0118403,12.49055,3.0983086,0.013439035,0.47036624
1764917083247,-0.02873042,-5.4539914,8.748413,3.222925,-0.0720821,0.42760566
1764917083299,-0.045489833,-4.5561657,6.373365,3.2449162,-0.089186326,0.3933972
1764917083351,0.35194764,-2.408567,2.0207062,3.1667254,-0.12705997,0.25045475
1764917083408,-0.58418524,-1.484405,-0.1388637,3.050661,0.32375857,0.2687807
1764917083462,-0.9911995,-0.51475334,-2.0925324,2.9211576,0.087964594,0.2919936
1764917083515,-0.58418524,1.1803415,-5.853823,2.615725,-0.21991149,0.15760323
1764917083571,-0.6536171,2.0350714,-6.8306575,2.4251351,-0.44837508,0.12217305
1764917083629,0.016759412,4.5322237,-10.230424,1.9156734,-0.3323107,0.08307768
1764917083681,0.40222588,5.475539,-11.777079,1.5968018,-0.17592919,0.04642576
1764917083733,-0.019153614,6.1650696,-12.631808,1.2425,-0.035430185,0.013439035
1764917083786,-0.076614454,6.7324953,-13.843274,0.8979719,0.02321288,-0.013439035
1764917083845,-0.521936,7.4962454,-15.935806,0.18448131,0.15760323,-0.04642576
1764917083899,-0.49799395,7.2113357,-16.378735,-0.23823744,0.119729586,-0.06352998
1764917083952,-0.39743748,5.434838,-17.54471,-1.1924089,-0.0012217305,-0.08307768
1764917084007,-0.21308395,4.000711,-17.377115,-1.7116444,-0.03176499,-0.096516706
1764917084063,0.17477672,2.0470424,-15.921441,-2.2333233,0.052534413,-0.10995574
1764917084117,0.62488663,-2.5474305,-10.888829,-3.2925637,0.44593164,-0.28099802
1764917084170,0.2657564,-5.5042696,-7.8146744,-3.7274997,0.44715336,-0.43127087
1764917084224,0.3184288,-8.298303,-5.159505,-4.1013494,-1.0433578,-0.5742133
1764917084280,-0.5530606,-15.749059,3.7349546,-4.805066,-0.61453044,-0.44837508
1764917084333,-2.3558946,-18.950106,12.411542,-4.8478265,0.15271631,-0.2565634
1764917084389,-1.6280571,-13.232753,28.411991,-3.7959166,-0.7086037,-0.034208454
1764917084446,-1.055843,-8.157045,33.023224,-2.9761355,-0.77824235,0.07819075
1764917084499,-0.45010993,-3.478775,34.806904,-2.0317378,-0.36651915,0.1881465
1764917084552,1.42455,1.4053963,33.547554,-0.3921755,-0.112399206,0.15271631
1764917084608,1.3335704,1.3311762,33.320107,0.31031954,0.08552113,0.09285152
1764917084665,0.7158663,-0.31603462,32.055965,1.0152581,0.15149458,0.03176499
1764917084719,-0.82121116,-5.4659624,26.18299,2.3506095,0.3640757,0.04886922
1764917084771,-1.5011644,-7.529764,21.466412,2.8893926,0.68661255,0.15515977
1764917084826,-1.7262194,-8.611943,17.013197,3.281568,0.52290064,0.2565634
1764917084879,-0.4381389,-9.210494,8.918402,3.7140608,0.19181168,0.36285394
1764917084932,0.22505496,-8.92319,5.753267,3.7775908,0.14660765,0.3640757
1764917084987,0.5554548,-7.2424603,0.7613561,3.780034,-0.16615535,0.27488935
1764917085039,0.37588966,-6.6247563,-1.283292,3.7604864,-0.46670106,0.18692477
1764917085096,1.388637,-5.130774,-6.114791,3.6639698,-0.35063666,0.06719518
1764917085151,2.1021092,-0.92176765,-12.2224,3.1117475,0.45814893,0.0036651916
1764917085204,1.5011644,2.2697031,-16.275784,2.7183504,0.8405506,0.015882496
1764917085256,1.8028339,4.572925,-18.856733,2.2137756,0.24801129,-0.05375614
1764917085312,0.8595184,7.144298,-19.615694,1.0103711,-0.22724187,-0.17837265
1764917085376,0.17956513,7.050924,-19.39064,0.42394048,-0.028099801,-0.19547687
1764917085431,-0.62009823,5.6000376,-17.547104,-0.63163465,-0.09896017,-0.22113322
1764917085484,-1.2449849,4.915296,-16.663643,-1.1227703,-0.002443461,-0.204029
1764917085535,-1.2162545,3.5098996,-15.315708,-1.7275269,-0.13683382,-0.18570304
1764917085587,-1.2018893,1.5035586,-12.617443,-2.597399,-0.030543262,-0.14294247
1764917085640,-0.7038953,0.09816227,-10.412383,-2.9773571,0.13683382,-0.13805555
1764917085693,-0.5363012,-1.4652514,-7.6231384,-3.3194418,0.27122417,-0.16982053
1764917085749,0.8355764,-4.9799395,-1.7669208,-3.8313468,-0.010995574,-0.27855456
1764917085805,0.58418524,-7.086837,2.066196,-3.98895,0.29565877,-0.40683624
1764917085857,-0.5482722,-9.093178,6.634333,-3.9645154,0.3885103,-0.5131268
1764917085909,-3.3255463,-8.463503,14.618996,-3.499036,-0.064751714,-0.643852
1764917085960,-3.4811692,-7.2687964,18.181568,-3.1972687,-0.4361578,-0.59986967
1764917086014,-4.3382936,-4.7046065,20.870256,-2.806315,-0.26633725,-0.47891834
1764917086070,-3.9336734,-1.8626889,23.21418,-1.8411479,-0.27122417,-0.26389378
1764917086123,-3.1292217,-1.0582372,22.443247,-1.3316863,-0.2932153,-0.18081611
1764917086175,-2.870648,-0.19871874,20.314802,-0.8979719,-0.112399206,-0.12583824
1764917086229,-2.0518308,0.58418524,16.112978,-0.2968805,-0.12461651,-0.06841691
1764917086282,-1.7190368,0.39743748,14.54717,-0.10751228,-0.081855945,-0.057421334
1764917086335,-2.516306,0.40222588,13.802573,0.030543262,0.3481932,-0.014660766
1764917086388,-1.9800048,0.49799395,12.150574,0.2919936,0.19914207,-0.0036651916
1764917086442,-2.0925324,-0.17956513,11.149797,0.38606682,0.118507855,-0.018325957
1764917086495,-2.6647465,-0.06703765,10.637438,0.45448375,0.27977628,0.010995574
1764917086549,-3.3135753,1.4389153,9.275137,0.5009095,0.36285394,0.09285152
1764917086604,-2.7581203,1.6783354,8.3390045,0.45814893,-0.12095132,0.1001819
1764917086657,-2.4732103,1.8483237,8.274361,0.41172317,0.1881465,0.17837265
1764917086710,-2.4851813,2.0111294,7.7691846,0.32620203,0.20525073,0.18936823
1764917086762,-2.2457612,1.8938135,7.620744,0.26633725,0.064751714,0.1600467
1764917086816,-2.4468741,1.99437,7.723695,0.21380283,0.32253686,0.15882497
1764917086869,-2.3511062,2.0494366,7.941567,0.12095132,0.3726278,0.13072516
1764917086922,-2.7748797,2.006341,7.893683,0.080634214,0.24923302,0.112399206
1764917086974,-2.5570073,2.3702598,7.860164,0.057421334,0.30909783,0.13072516
1764917087027,-2.6767175,2.6120741,8.087613,-0.02443461,0.14172074,0.119729586
1764917087082,-2.7461493,2.4468741,8.101978,-0.062308256,-0.11484267,0.09285152
1764917087137,-2.9281087,2.695871,8.439561,-0.07086037,0.22113322,0.12339478
1764917087190,-3.2010477,2.243367,8.487445,-0.1001819,0.25534168,0.12705997
1764917087243,-2.360683,2.1906946,8.293514,-0.111177474,-0.09773844,0.087964594
1764917087296,-2.8275523,2.1978772,8.688558,-0.12950343,0.25411993,0.10140363
1764917087348,-2.870648,2.147599,9.40203,-0.13439035,0.12705997,0.065973446
1764917087400,-2.7748797,1.9800048,9.01417,-0.111177474,0.10995574,0.06963864
1764917087451,-2.9017725,2.171541,9.14585,-0.10873401,0.10629055,0.057421334
1764917087503,-3.040636,2.0973208,9.844957,-0.11728613,-0.17470746,0.036651913
1764917087556,-2.4995465,2.1380222,10.254366,-0.08307768,-0.059864793,0.04886922
