t,ax,ay,az,gx,gy,gz
1764917049984,-1.2090719,-2.80361,9.114726,0.09040806,-0.034208454,0.06719518
1764917050037,-1.2545617,-2.8491,9.289502,0.007330383,-0.017104227,0.05131268
1764917050095,-1.352724,-2.6168625,9.378088,0.035430185,0.018325957,0.04520403
1764917050148,-1.340753,-2.765303,9.227253,0.02687807,0.02687807,-0.0036651916
1764917050201,-1.3910311,-2.719813,9.193734,0.002443461,0.007330383,-0.05009095
1764917050253,-1.3934253,-2.717419,9.126697,0.047647487,0.029321533,-0.056199603
1764917050305,-1.4628572,-2.4947581,9.306262,0.037873644,0.014660766,-0.04886922
1764917050362,-1.3215994,-2.5378537,8.892065,0.14538592,0.019547688,-0.02687807
1764917050415,-1.2066777,-2.3008277,9.433155,0.27977628,0.052534413,0.002443461
1764917050473,-1.1348516,-2.3511062,9.598354,0.15271631,0.064751714,0.037873644
1764917050529,-1.412579,-2.2481554,9.380483,-0.036651913,0.009773844,0.07696902
1764917050584,-1.9057846,-2.408567,9.77792,-0.15027285,0.13561209,0.3042109
1764917050639,-2.291251,-1.6256629,9.902418,-0.38240165,0.21502456,0.5864306
1764917050693,-1.7429788,-1.2545617,8.3868885,-0.7049385,0.19181168,0.8564331
1764917050786,-2.0159178,-1.3239936,8.619126,-0.52778757,-0.4288274,1.1203269
1764917050841,-4.5657425,-0.8619126,9.77792,-2.3420575,-0.9615019,1.717753
1764917050895,-5.6431336,-1.4580688,8.3629465,-3.7067304,-1.5723672,2.0842721
1764917050950,-3.454833,-7.0820484,4.050989,-4.5985937,-2.1233675,1.9547688
1764917051002,-3.5673606,-5.5401826,4.173094,0.09162979,-1.0751228,2.2834144
1764917051054,-2.3463178,-8.295909,4.2760444,-1.0995574,-0.6243043,2.1868975
1764917051110,-0.06464344,-10.127473,2.918532,-2.475226,0.012217305,1.4709635
1764917051162,-0.581791,-8.746018,2.2888567,-0.93462384,0.88453287,0.8576548
1764917051214,-2.4181437,-10.357317,3.0430303,-1.4196508,0.7733554,0.8197812
1764917051268,-4.110844,-9.220071,2.5115175,0.31764993,0.8197812,0.31398472
1764917051327,-6.0525417,-8.202535,2.6647465,0.013439035,0.6035349,0.36041048
1764917051390,-4.5992613,-4.685453,0.6368576,-1.3219124,0.47158796,0.7806858
1764917051446,-6.0740895,-6.8569937,2.1164744,-1.7201965,0.17837265,1.102001
1764917051503,-4.831499,-7.8266454,2.705448,-2.0134118,0.05375614,0.68294734
1764917051558,-5.4779334,-7.603985,1.3239936,-1.7128662,-0.3213151,0.40439278
1764917051611,-8.109161,-7.9846625,2.4133554,-1.5357152,-1.0641272,-0.27122417
1764917051670,-5.329493,-7.422025,1.7980455,-0.45937067,-1.2681563,-1.5381587
1764917051728,-8.1642275,-9.31105,4.4843397,0.8735373,-1.4660766,-1.7690657
1764917051828,-2.2720973,-10.874464,3.265691,1.6530013,-1.5552629,-2.3774874
1764917051884,-0.85473,-8.24563,2.3247697,0.4251622,-1.5589281,-1.9242256
1764917051936,-0.31603462,-7.2951326,1.5945383,0.13927728,-1.065349,-1.473407
1764917051989,-0.06943185,-8.295909,2.777274,0.6914995,-0.4605924,-1.110553
1764917052045,-0.39264908,-9.933543,2.1284454,-0.24801129,-0.38728857,-1.1777482
1764917052111,-0.90500826,-14.736312,3.5242648,-1.0812315,-0.032986723,-0.44959682
1764917052171,0.6679823,-14.539987,6.3542113,-1.0824533,0.8197812,0.9211848
1764917052234,4.280833,-8.1881695,7.0341644,0.19303341,0.05131268,0.06963864
1764917052297,5.3845596,-6.4308257,4.0701427,0.68294734,-0.52656585,0.02076942
1764917052355,3.086126,-6.445191,3.1316159,1.0494665,-0.7684685,-0.31642818
1764917052413,0.80445176,-9.552865,7.017405,0.956615,-0.3555236,-0.021991149
1764917052472,-0.557849,-12.926295,2.789245,-0.02687807,0.5900958,0.6218608
1764917052531,-3.6487634,-8.264784,1.2665327,0.09040806,1.8704693,1.6566665
1764917052594,-0.25139117,-13.462596,5.7365074,-1.7825048,0.82711154,1.7935003
1764917052650,-1.067814,-12.811374,6.931214,-3.1471777,0.05131268,0.7855727
1764917052705,-2.8682537,-5.595249,2.5210943,1.2864822,1.1276573,0.6414085
1764917052762,-5.118803,-3.7684734,0.08619126,0.54733527,0.9126327,0.3848451
1764917052901,-3.0669725,-7.675811,2.372654,-2.6731462,1.128879,0.5571091
1764917052955,-4.4843397,-7.026982,0.47644615,-0.204029,1.9645426,1.1887437
1764917053013,-6.203377,-9.730036,-4.027047,-1.1520919,1.7666223,1.5454891
1764917053073,-5.2504845,-10.43872,-0.93613285,-2.7403414,1.0629056,0.7318166
1764917053128,-3.277662,-8.935161,-3.25372,-3.015231,-0.04153884,-0.119729586
1764917053182,-4.1395745,-7.4268136,-5.3103395,0.4202753,-0.14538592,0.16737708
1764917053236,-4.5633483,-6.9144545,-4.745308,0.91507614,-0.2968805,0.062308256
1764917053297,-4.3167458,-6.540959,-3.9935284,-1.0641272,-0.3115413,-0.22479841
1764917053357,-4.4364557,-7.177817,-2.554613,-1.3671165,-0.5864306,-0.22357668
1764917053422,-4.8123455,-9.126697,-4.7788267,0.69027776,-1.1948525,-0.2565634
1764917053476,-6.8186865,-8.293514,-2.681506,1.328021,-0.8381071,-0.32742378
1764917053545,-4.903325,-7.36217,-2.0111294,1.0152581,-0.47891834,-0.6731735
1764917053608,-5.6551046,-5.9783216,-1.1755531,-0.4886922,-0.36041048,-0.9053023
1764917053665,-5.5018754,-7.7667904,-3.5649664,-4.4043384,-0.5204572,-0.5644395
1764917053774,-5.365406,-9.16261,-4.865018,2.475226,0.70371675,-0.77824235
1764917053828,-3.2202013,-7.302315,0.6607997,3.313333,0.10140363,-0.5742133
1764917053924,-4.307169,-10.972627,2.3247697,1.8619173,0.2932153,0.10873401
1764917053977,-4.0701427,-11.99495,1.8052281,1.2559389,-0.24556783,0.43004912
1764917054030,-2.873042,-10.785878,1.5251064,1.001819,-0.04153884,0.5864306
1764917054084,-2.135628,-7.7667904,1.1755531,1.105666,0.009773844,0.47036624
1764917054140,-3.1866825,-7.6470804,1.8435353,0.8136725,0.0012217305,-0.095294975
1764917054200,-2.5689783,-6.2225304,5.2720323,-0.5717699,0.28221974,-0.1881465
1764917054260,-3.2944214,-9.394848,2.2577322,-2.9407053,-0.21746802,0.015882496
1764917054316,-3.8666358,-10.58716,1.6663644,-4.1184535,-0.6450737,0.35796702
1764917054418,-3.454833,-11.975797,-6.5361705,-0.8381071,0.26633725,-0.17104226
1764917054471,-5.0876784,-5.779603,-2.1763294,2.0928242,0.56199604,-0.27122417
1764917054527,-3.6056678,-7.9367785,-0.21068975,0.9993755,0.002443461,-0.22113322
1764917054585,-3.466804,-8.513782,1.484405,0.8527679,0.040317107,-0.002443461
1764917054642,-3.4859576,-9.315839,0.47165772,0.12705997,-0.17592919,-0.11728613
1764917054699,-2.8419175,-9.083601,-0.40462008,0.30909783,-0.04153884,-0.172264
1764917054754,-2.920926,-9.19134,-0.5626374,0.29077184,-0.06841691,-0.061086524
1764917054811,-3.1483753,-8.848969,-0.7565677,0.18570304,-0.07452556,-0.037873644
1764917054865,-2.3175871,-10.019734,-1.2473791,-0.3042109,0.012217305,-0.010995574
1764917054957,-3.6391866,-8.978256,0.10295067,-0.37384954,-0.030543262,0.14294247
1764917055009,-3.1244333,-9.090784,0.35673606,-0.15393804,-0.09773844,0.376293
1764917055061,-3.3063924,-10.448297,-0.15562311,0.008552114,-0.10262536,0.2846632
1764917055114,-3.5482068,-11.063606,-0.47884035,0.056199603,-0.040317107,0.037873644
1764917055171,-3.052607,-10.223241,0.30166942,0.18936823,0.007330383,-0.32498032
1764917055224,-3.0669725,-10.491392,0.10055647,0.35308012,-0.021991149,-0.49480084
1764917055277,-3.2704794,-10.424355,0.39743748,0.675617,0.037873644,-0.5876524
1764917055332,-2.4732103,-11.085154,0.45968673,0.7110472,-0.080634214,-0.7122689
1764917055387,-2.3989902,-12.181698,0.9983821,0.8503244,0.059864793,-0.9896017
1764917055448,-2.2816741,-11.949461,1.0271125,1.0445796,0.3555236,-1.3732251
1764917055503,-1.5227122,-11.274296,1.5705963,1.1545353,0.5693264,-1.6468927
1764917055558,-0.91458505,-10.603919,1.7477672,1.1826351,0.50946164,-1.6603317
1764917055614,-0.08140286,-9.794679,2.2984335,1.4721853,0.65240407,-1.5234979
1764917055669,0.61770403,-9.150639,3.2968156,1.5931365,0.57787853,-1.2669345
1764917055782,1.0821792,-8.0684595,4.0677485,1.6334536,0.3555236,-0.86620694
1764917055837,1.7741034,-7.1251445,4.594473,1.3842206,0.172264,-0.86132
1764917055891,2.0015526,-5.705383,5.0876784,1.2889256,-0.1160644,-0.87598073
1764917055945,2.2649148,-5.2744265,6.3542113,1.328021,-0.37507126,-0.91629785
1764917055997,2.6384103,-4.7907977,5.398925,1.1679744,-0.5045747,-0.9822713
1764917056048,3.0621839,-4.086902,5.896919,1.0372492,-0.35918877,-0.8503244
1764917056102,3.5577838,-3.2034419,6.6175733,0.675617,-0.16493362,-0.6609562
1764917056156,3.596091,-1.8243817,6.849811,0.63407815,-0.06352998,-0.5131268
1764917056210,3.4596214,-1.769315,6.1243677,0.40439278,0.035430185,-0.13561209
1764917056267,3.6703112,-1.7597382,5.533,-0.015882496,0.17470746,0.11728613
1764917056324,3.5170822,-1.7956513,5.8921304,-0.31398472,0.31764993,0.3494149
1764917056380,3.4883518,-2.4133554,5.7365074,-0.7171558,0.49113566,0.6084218
1764917056438,2.834735,-3.7732618,5.731719,-1.1533136,0.61941737,0.75991637
1764917056495,2.1452048,-4.747702,5.7748146,-1.6358972,0.5290093,0.79901177
1764917056549,1.4987702,-5.7843914,5.556942,-1.8277088,0.47891834,1.0201449
1764917056610,0.5410896,-7.8888946,5.2409077,-2.1025982,0.43493605,1.102001
1764917056671,0.24181437,-9.548077,4.9344497,-2.1930063,0.32498032,1.047023
1764917056801,-0.35194764,-10.857705,2.7509377,-2.1820107,-0.3726278,0.657291
1764917056852,-0.6560113,-11.484985,2.348712,-1.6847663,-0.88331115,0.59986967
1764917056907,0.14844051,-10.888829,1.472434,-1.1484267,-1.0934488,0.5900958
1764917056960,-0.80205756,-12.071565,-0.82360536,-1.9010127,-1.4501941,0.40561453
1764917057012,0.08140286,-12.488156,0.50278234,-1.2412782,-0.81000733,0.63163465
1764917057072,0.82599956,-11.235989,0.074220255,-0.8943067,-0.3359759,0.5693264
1764917057130,-0.60573304,-10.278308,-0.34715924,-0.54611355,0.12095132,0.41050145
1764917057186,-0.49320555,-11.662156,0.20111294,-0.4728097,0.13439035,0.2602286
1764917057241,-0.22266077,-12.588713,0.61291564,0.036651913,0.008552114,-0.08307768
1764917057295,0.545878,-13.077129,0.35673606,0.816116,-0.14538592,-0.39095375
1764917057352,0.19393034,-12.373235,1.1324574,1.6053538,-0.1600467,-0.766025
1764917057410,0.34237084,-12.976573,1.6927006,1.7116444,-0.18203785,-0.98471475
1764917057464,0.44532153,-12.861651,1.70946,1.6994271,-0.07696902,-1.378112
1764917057523,0.521936,-11.192893,2.0757728,1.8240436,0.065973446,-1.6542231
1764917057578,1.3982137,-9.92636,2.6719291,1.7079792,0.105068825,-1.5210545
1764917057636,1.4197617,-9.095572,3.2848446,1.6395624,0.25045475,-1.3487904
1764917057697,2.006341,-7.560889,3.265691,1.4892895,0.4092797,-1.2583824
1764917057811,2.1763294,-5.0278234,5.046977,1.2596041,0.47891834,-0.86254174
1764917057864,2.2649148,-4.1180267,4.7381253,1.1362094,0.3115413,-0.7489208
1764917057918,2.6599581,-3.3973722,5.5042696,0.7281514,0.16737708,-0.49968776
1764917057974,3.107674,-2.8060043,5.6527104,0.2284636,0.14782938,-0.18081611
1764917058030,2.9257145,-2.918532,5.145139,-0.07574729,0.20525073,0.02687807
1764917058087,2.336741,-2.9855695,5.2385135,-0.63285637,0.39461896,0.43371433
1764917058143,2.0135236,-3.5625722,5.0158525,-1.0323622,0.535118,0.6817256
1764917058197,1.5346833,-4.5058875,4.879383,-1.568702,0.43249258,1.0396926
1764917058254,0.34955344,-5.559336,4.606444,-1.8619173,0.3567453,1.1618657
1764917058312,-0.035913024,-8.295909,4.5441947,-2.2626448,0.39828414,1.3744467
1764917058369,-0.8499416,-10.761936,2.8443117,-2.5179865,0.19303341,1.1276573
1764917058426,-0.79248077,-12.310986,0.15801731,-1.9620992,-0.24190263,0.7122689
1764917058479,1.163582,-12.789825,2.195483,-2.334727,-0.6939429,0.48624873
1764917058540,2.0949266,-12.615048,1.8770541,-2.751337,-0.6585127,0.29077184
1764917058600,1.0366893,-10.556035,0.8643068,-2.4288,-0.39950588,0.4251622
1764917058665,0.49559975,-10.398018,-0.5746084,-1.8741345,-0.2406809,0.50946164
1764917058724,0.48841715,-11.741165,-1.42455,-0.81122905,-0.06963864,0.49968776
1764917058870,-0.40222588,-11.465832,-1.103727,0.7892379,-0.032986723,-0.35063666
1764917058923,-0.5315128,-11.207258,-0.60094464,1.5039502,-0.09896017,-0.5522222
1764917058979,0.15801731,-11.233594,-0.05267244,1.9938642,-0.04886922,-0.71593404
1764917059031,1.99437,-11.868058,0.6584055,2.0292943,-0.13072516,-0.83077675
1764917059087,2.2625206,-11.386824,2.552219,2.1453588,-0.07574729,-1.065349
1764917059143,1.7070658,-11.331757,3.6607344,2.01219,0.010995574,-1.142318
1764917059200,1.9057846,-10.967838,3.4955344,1.2815952,0.12095132,-0.9309586
1764917059255,1.9488802,-9.593566,4.6926355,1.8203784,0.5864306,-0.5729916
1764917059311,1.3383588,-9.514558,3.6152446,1.0690142,0.40561453,-0.39584067
1764917059365,0.93134445,-8.135497,3.4284968,1.6261233,0.46181414,-0.63163465
1764917059424,1.1013328,-5.2648497,4.675876,1.8216002,0.3371976,-0.78801614
1764917059481,2.1164744,-4.450821,5.683835,1.5125023,-0.036651913,-0.6658431
1764917059544,1.6136919,-4.5058875,5.5880666,1.3903292,-0.16737708,-0.4642576
1764917059604,2.3056161,-3.7948096,5.3821654,0.8381071,-0.18936823,-0.29932398
1764917059664,2.7964275,-2.3056161,5.920861,0.29443705,-0.02565634,-0.1001819
1764917059727,2.2816741,-2.078167,5.5521536,-0.1881465,0.07086037,0.22602014
1764917059785,2.3127987,-1.6998832,5.1690817,-0.52412236,0.08674286,0.4801401
1764917059873,1.8459295,-2.7246015,4.6782703,-1.3365731,0.030543262,1.001819
1764917059926,0.6727707,-5.3606176,4.8745947,-1.8362609,0.087964594,1.7580702
1764917059984,-0.8331822,-8.24563,3.052607,-1.8032742,0.30298916,1.9657644
1764917060035,-1.6903064,-11.836933,4.4005427,-2.2919664,0.3371976,1.7592919
1764917060087,-1.1468226,-13.364434,3.9001546,-2.1673498,0.35796702,0.9773844
1764917060142,-0.62488663,-14.140155,4.486734,-1.9730947,0.04153884,0.039095376
1764917060195,2.1547816,-13.855246,4.280833,-1.9755383,-0.23579398,-0.17715092
1764917060249,2.456451,-10.405201,1.9847932,-1.9278907,-0.344528,-0.32986724
1764917060307,-0.02873042,-8.798691,2.0135236,-1.4172074,-0.032986723,-0.014660766
1764917060371,-0.1340753,-10.09156,1.3000516,-1.0482447,0.040317107,0.33475417
1764917060428,1.13964,-11.35091,0.22984336,-0.7244862,0.08674286,0.45937067
1764917060487,1.2569559,-12.097901,0.33997664,-0.16615535,0.13316862,0.18692477
1764917060547,1.0606314,-11.784261,0.37828386,0.61208695,0.17470746,-0.2003638
1764917060608,1.412579,-11.860875,1.2282255,1.3035865,0.1160644,-0.548557
1764917060668,1.3670892,-12.950237,1.5466543,1.4526376,0.036651913,-0.9114109
1764917060726,1.6448165,-11.343728,2.5905263,1.7519615,0.04642576,-1.1520919
1764917060791,1.6208745,-10.6877165,3.6846764,2.0732768,-0.02076942,-1.1520919
1764917060915,1.7980455,-8.90643,4.522647,1.314582,-0.22602014,-0.9639453
1764917060968,2.2744915,-8.1881695,3.8905778,1.2864822,-0.267559,-0.8539896
1764917061023,2.1763294,-7.4746976,3.7828386,1.8203784,-0.16493362,-0.9810496
1764917061077,2.183512,-5.973533,4.331111,1.7959439,0.05375614,-1.0274754
1764917061132,3.1435869,-4.003105,4.9296613,1.4856243,0.004886922,-0.94806284
1764917061191,3.550601,-3.5098996,5.149928,1.0274754,-0.02687807,-0.81245077
1764917061250,3.8594532,-2.2050598,5.705383,0.5375614,0.11728613,-0.61086524
1764917061310,3.9384618,-1.7669208,5.145139,-0.056199603,0.21135938,-0.16737708
1764917061370,3.1651347,-1.4077905,5.2026005,-0.3494149,0.25411993,0.1685988
1764917061427,1.5131354,-1.7286136,3.1148565,-1.1362094,-0.13194689,0.5497787
1764917061483,2.585738,-3.6463692,4.596867,-2.0329595,-0.26145032,0.9969321
1764917061542,2.15957,-6.145916,3.8666358,-1.8753563,-0.047647487,1.6151277
1764917061597,1.2545617,-9.794679,3.58412,-2.058616,-0.018325957,1.6163495
1764917061651,1.2856863,-12.25113,3.9600096,-2.3273966,-0.20158553,1.3060299
1764917061710,3.0885203,-12.8832,3.1268275,-1.7641789,-0.66950834,0.9272934
1764917061764,3.6535518,-11.549629,2.2290018,-1.2718215,-0.7305948,0.77824235
1764917061823,3.7062242,-10.445902,2.1523874,-1.1129965,-0.49235737,0.9309586
1764917061917,0.7326257,-9.9790325,0.035913024,-1.2327261,0.11362094,0.956615
1764917061975,0.093373865,-10.5440645,-0.33279404,-0.79901177,0.080634214,0.85154617
1764917062030,0.59376204,-11.348516,0.62488663,-0.30909783,0.14660765,0.72204274
1764917062083,0.39264908,-12.588713,-0.062249243,-0.37018433,-0.040317107,0.37751472
1764917062135,0.35673606,-12.143391,0.11971009,0.46792278,-0.058643065,0.07819075
1764917062193,0.80684596,-11.310209,0.11252748,1.0604621,-0.12339478,-0.22724187
1764917062249,0.81642276,-11.2312,-0.21787235,1.0629056,-0.032986723,-0.48380527
1764917062303,0.7038953,-12.045229,0.60812724,1.4746287,0.10629055,-0.81122905
1764917062357,1.3000516,-11.449073,1.8124107,1.7165314,0.21380283,-1.1142182
1764917062416,1.2210429,-10.666168,3.6727054,1.91323,0.08552113,-1.2791518
1764917062477,1.7118542,-9.816227,4.783615,1.9425515,-0.1001819,-1.2718215
1764917062539,2.1619642,-9.363723,4.6112323,1.3109168,-0.13683382,-1.1472049
1764917062596,2.822764,-8.101978,4.915296,1.2046263,-0.16126843,-1.0140363
1764917062655,3.347094,-7.9607205,3.9959226,1.2082914,-0.1966986,-0.7770206
1764917062715,2.5378537,-7.225701,4.1180267,1.4355333,-0.056199603,-0.79779
1764917062775,2.6623523,-5.5880666,4.10845,1.3487904,0.02321288,-0.8564331
1764917062832,2.2385786,-4.584896,4.3358994,1.0299188,-0.02076942,-0.816116
1764917062941,3.8762126,-2.966416,5.3845596,-0.23457226,0.19181168,-0.28344148
1764917062993,3.3806129,-2.777274,5.1235914,-0.40194935,0.41172317,0.080634214
1764917063046,2.731784,-2.908955,5.305551,-0.61941737,0.4373795,0.31031954
1764917063098,2.4588451,-2.6431987,4.537012,-0.9822713,0.3213151,0.689056
1764917063155,1.7286136,-4.5322237,4.4603977,-1.3402383,0.21135938,1.1142182
1764917063209,1.1994951,-5.590461,4.6782703,-1.4526376,0.1001819,1.4636332
1764917063263,0.37828386,-9.059659,3.1531637,-1.8240436,0.0061086523,1.65911
1764917063322,0.14604631,-12.406754,4.4101195,-2.3005185,0.5216789,1.6249015
1764917063379,0.5793968,-12.674904,4.175488,-1.7873917,0.35185838,1.2669345
1764917063441,1.091756,-12.899959,3.3901896,-1.351234,-0.07941248,0.7134906
1764917063501,2.2481554,-10.354922,2.44448,-1.1594223,-0.2687807,0.28221974
1764917063560,0.50278234,-10.105926,1.9416976,-1.677436,-0.07086037,0.13805555
1764917063619,0.09816227,-9.509769,0.8714894,-1.4159856,0.043982297,0.23701571
1764917063687,-0.30406362,-10.16578,0.5363012,-1.1129965,0.061086524,0.49235737
1764917063759,0.32321724,-11.403583,0.39025488,-0.18203785,-0.07819075,0.4092797
1764917063812,0.6488287,-11.801021,-0.22266077,-0.10140363,-0.111177474,0.18936823
1764917063870,0.5626374,-10.749966,-0.2705448,0.27366763,0.015882496,-0.061086524
1764917063925,0.5722142,-9.713276,0.40222588,0.80878556,0.02321288,-0.11484267
1764917063981,0.12210429,-10.58716,0.9864111,1.2266175,-0.057421334,-0.062308256
1764917064041,0.51235914,-10.244789,2.5378537,1.3109168,-0.18570304,-0.064751714
1764917064099,-0.110133275,-11.824963,2.6288335,1.0531317,-0.18081611,-0.17959438
1764917064154,-0.17238252,-11.03727,3.0478187,0.95905846,-0.24190263,-0.25534168
1764917064209,-0.50757074,-11.695675,2.9951463,0.92485,-0.31887165,-0.5216789
1764917064262,-0.18674773,-11.221623,3.1004913,1.2559389,-0.24923302,-0.6743952
1764917064315,-0.5291186,-11.008539,3.5889084,1.3927728,-0.19547687,-0.906524
1764917064371,-0.16998832,-10.058042,3.7588966,1.9413297,-0.18936823,-1.070236
1764917064426,0.90021986,-8.746018,4.144363,1.8887954,-0.3933972,-1.3439035
1764917064485,0.89303726,-7.273585,4.173094,1.5088371,-0.50946164,-1.319469
1764917064543,1.8195933,-5.0637364,3.9935284,1.1594223,-0.38606682,-1.1203269
1764917064599,2.0326772,-4.1299977,4.2544966,0.77457714,-0.2284636,-0.81122905
1764917064659,2.6431987,-3.430891,4.345476,0.4728097,0.06841691,-0.32498032
1764917064723,2.4468741,-3.5793316,4.261679,-0.09896017,0.19792034,0.062308256
1764917064825,2.0805612,-4.7548847,4.8482585,-1.0922271,0.36041048,0.9138544
1764917064877,0.9983821,-5.6766524,4.675876,-1.3756685,0.3652974,1.2070698
1764917064932,-0.08140286,-7.6949644,4.405331,-1.6847663,0.33841935,1.328021
1764917064991,-0.055066638,-9.828198,2.777274,-2.1319196,0.47647488,1.1044444
1764917065046,-0.33279404,-12.004527,3.514688,-1.8839084,0.6963864,0.6805039
1764917065100,0.78050977,-12.08593,2.597709,-1.5503759,0.37751472,0.4654793
1764917065155,0.15562311,-11.262324,2.0398598,-1.4208726,-0.33841935,-0.2321288
1764917065207,1.5682021,-10.879252,3.6056678,-0.34330627,-0.52778757,-0.267559
1764917065267,2.0015526,-7.821857,3.787627,0.059864793,-0.31398472,-0.11728613
1764917065326,1.3982137,-8.281544,1.2904748,-1.1313224,-0.042760566,0.27977628
1764917065383,1.2976574,-9.167398,1.2425907,-0.9993755,0.042760566,0.5314528
1764917065443,1.0702082,-9.998186,0.9648633,-0.45448375,0.09285152,0.6768387
1764917065497,0.5267244,-11.781867,0.842759,0.10140363,0.09040806,0.5864306
1764917065551,-0.6655881,-11.915942,2.5067291,0.88697636,0.21746802,0.3640757
1764917065616,-2.171541,-14.123396,6.0645127,4.651128,0.05497787,-0.2761111
1764917065710,-0.4189853,-2.5737667,7.680599,12.119567,0.57543504,-1.8839084
1764917065793,0.2705448,2.4851813,7.690176,3.2204816,-0.24556783,-1.8216002
1764917065846,0.31603462,1.5729905,7.1395097,2.5949554,-0.057421334,-1.4013249
1764917065899,-0.60094464,4.5992613,7.493851,1.2034045,-0.10995574,-0.766025
1764917065954,-0.110133275,4.781221,6.7971387,0.8173377,-0.21502456,-0.43004912
1764917066012,-0.62488663,5.1355624,7.479486,0.073303826,-0.3921755,-0.013439035
1764917066071,-0.60333884,4.43885,7.2209125,0.118507855,-0.42394048,0.039095376
1764917066127,-0.62967503,5.046977,7.548918,0.07452556,-0.37507126,-0.13072516
1764917066180,-0.50517654,5.9184666,7.2065473,0.056199603,-0.22113322,-0.12095132
1764917066233,-0.320823,5.839458,7.4244194,-0.08674286,-0.13561209,-0.018325957
1764917066293,-0.4405331,5.6886234,7.642292,-0.008552114,-0.02443461,0.02687807
1764917066353,-0.5482722,5.530606,7.505822,-0.06841691,0.037873644,0.042760566
1764917066413,-0.45489833,5.631162,7.1347213,-0.1685988,0.11484267,0.096516706
1764917066472,-0.60094464,5.0637364,7.261614,-0.21746802,0.267559,0.18081611
1764917066527,-0.80684596,4.783615,7.2448545,-0.33475417,0.36041048,0.2003638
1764917066580,-1.2641385,3.9552212,7.680599,-0.548557,0.3921755,0.12583824
1764917066634,-1.532289,3.5075054,6.600814,-0.8051204,0.40683624,0.118507855
1764917066696,-2.0159178,3.3327289,8.118738,-0.86132,0.6768387,0.05131268
1764917066755,-1.1061212,4.187459,8.429984,-3.980398,0.7476991,0.34574974
1764917066857,-0.38067806,-6.3685765,5.0996494,-11.794586,0.29565877,0.82711154
1764917066960,-2.1452048,-10.2735195,2.2242134,-2.6279423,0.7110472,-0.2761111
1764917067014,0.23463176,-15.497667,0.7374141,-2.6682594,-0.16737708,0.28344148
1764917067066,-2.7485435,-12.579136,3.289633,0.7134906,0.035430185,-0.33964106
1764917067122,-5.566519,-10.029311,1.0606314,1.9010127,-0.028099801,-0.25167647
1764917067176,-2.9041667,-9.481039,-0.23942018,0.25045475,-0.09896017,-0.54000485
1764917067236,-1.3383588,-8.37013,-0.06703765,-0.13316862,-0.57787853,-0.74036866
1764917067288,-1.127669,-7.216124,0.1388637,-0.20647246,-0.3933972,-0.4007276
1764917067343,-1.3958195,-9.114726,0.56982,0.19547687,-0.21380283,0.19425514
1764917067398,-1.982399,-9.701305,0.81163436,0.119729586,-0.2321288,0.28955013
1764917067455,-1.4460979,-9.911995,0.61052144,-0.0061086523,-0.23945917,0.31642818
1764917067509,-1.5490485,-9.428367,0.90021986,0.36041048,-0.23090707,0.3005457
1764917067562,-1.553837,-9.232041,2.1763294,0.6450737,-0.22602014,0.45814893
1764917067617,-3.0621839,-10.716447,1.9632454,0.8686504,-0.30787608,0.52290064
1764917067678,-2.0925324,-9.715671,1.5131354,0.87964594,-0.32498032,0.35063666
1764917067734,-2.5115175,-9.7324295,1.9416976,0.9639453,-0.27000242,0.27122417
1764917067789,-1.9393034,-10.441113,2.1763294,0.7318166,-0.30176744,0.02687807
1764917067844,-2.030283,-10.733206,3.0190883,0.31031954,-0.24190263,-0.19547687
1764917067901,-2.4708161,-8.645462,4.120421,0.6291912,-0.18570304,-0.22724187
1764917068035,-1.6950948,-8.0684595,4.4220905,0.5852089,-0.25045475,-0.23945917
1764917068089,-1.5155296,-9.083601,4.1611223,0.6010914,-0.25778514,-0.2602286
1764917068145,-1.2497733,-7.920019,4.3646297,0.41783184,-0.33475417,-0.35063666
1764917068201,-1.3000516,-8.049306,4.711789,0.33475417,-0.18081611,-0.15515977
1764917068264,-1.0271125,-7.5584946,5.2528787,0.42638394,-0.06352998,-0.058643065
1764917068321,-1.1731589,-7.4507556,5.4659624,0.63041294,0.0061086523,0.07452556
1764917068378,-0.9624691,-7.7093296,5.592855,0.48624873,-0.089186326,0.032986723
1764917068432,-1.2880806,-7.6614456,5.841852,0.33475417,0.030543262,0.05009095
1764917068489,-1.0702082,-7.4244194,5.813122,0.09407325,-0.010995574,0.05497787
1764917068544,-1.0247183,-7.1490865,6.145916,0.1563815,0.043982297,0.064751714
1764917068601,-1.1947067,-8.104373,6.1076083,-0.07941248,0.02443461,0.087964594
1764917068665,-0.9888053,-7.9224133,6.0405707,-0.1441642,0.04153884,0.040317107
1764917068724,-1.0702082,-8.183381,6.0142345,-0.40561453,-0.10751228,-0.1282817
1764917068826,-1.1659763,-7.1969705,6.021417,-0.02565634,-0.007330383,0.047647487
1764917068881,-0.94092125,-7.9846625,5.947197,-0.096516706,-0.056199603,0.05009095
1764917068934,-0.63206923,-8.054094,5.920861,-0.11362094,-0.04886922,-0.002443461
1764917068995,-0.62488663,-8.683769,6.1411276,-0.42760566,-0.065973446,-0.17348573
1764917069050,-0.81881696,-7.668628,5.482722,-0.52412236,-0.14905111,-0.30909783
1764917069106,-1.2354081,-7.1275387,4.5872903,-0.52534413,-0.04642576,-0.07819075
1764917069166,-0.94092125,-8.319851,4.6375685,-0.5216789,-0.096516706,0.32986724
1764917069228,-0.19153613,-6.1387334,4.5513773,-0.62796944,-0.10262536,0.535118
1764917069287,-0.9768343,-9.763555,3.0813377,-0.9896017,-0.3555236,0.5546656
1764917069344,-1.5729905,-13.6254015,1.0941502,-1.9743165,-0.4092797,0.3811799
1764917069399,-3.679888,-7.8649526,2.681506,0.04642576,0.25534168,0.49113566
1764917069457,-3.1603463,-11.856087,2.6048915,-1.8741345,-0.062308256,0.36774087
1764917069512,-2.7246015,-11.98298,2.1930888,-0.516792,0.04153884,0.13194689
1764917069568,-1.2306197,-12.306197,1.9153614,-0.39950588,-0.3726278,-0.26389378
1764917069630,-1.1252748,-7.4962454,1.7741034,0.26389378,0.22602014,-0.3408628
1764917069688,-1.8483237,-12.088325,3.9432502,-1.8961257,0.54244834,-0.73426
1764917069863,-0.095768064,-9.698911,4.5154643,7.657807,0.3921755,-0.59742624
1764917069940,1.520318,-9.105149,6.835446,0.98715824,-0.32986724,-0.6377433
1764917069995,-1.30484,-9.775525,6.6247563,-0.3848451,-0.78801614,-0.535118
1764917070046,-0.260968,-10.82658,2.861071,0.36041048,-0.60231316,-0.72326446
1764917070097,1.2425907,-8.094796,3.8163576,1.359786,-0.2284636,-1.0641272
1764917070148,1.8363527,-9.074024,5.2265425,0.48991394,-0.41905355,-1.423316
1764917070201,1.9129672,-8.214506,7.0940194,0.47158796,-0.49113566,-1.6652187
1764917070258,2.9233203,-5.686229,5.281609,0.53878313,-0.46792278,-1.4489723
1764917070311,2.4756045,-5.0014873,4.2640734,0.63041294,-0.061086524,-0.5534439
1764917070370,2.8682537,-5.556942,4.1802764,1.3158038,0.73548174,0.22357668
1764917070425,3.25372,-4.972757,6.95755,0.70616025,0.9896017,0.22968534
1764917070479,4.4580035,-4.8578353,7.1514807,-1.0604621,0.48747048,-0.010995574
1764917070531,2.8874073,-6.0238113,6.9886746,-1.6151277,0.11484267,0.2932153
1764917070590,3.964798,-4.644751,5.947197,0.2724459,-0.35796702,0.38728857
1764917070646,3.1723173,-6.9982514,6.9767036,0.43860126,-0.51068336,0.22113322
1764917070699,1.9033904,-5.925649,6.555324,1.0323622,-0.3885103,-0.021991149
1764917070755,2.6527755,-5.901707,6.155493,0.45570546,-0.204029,-0.2284636
1764917070881,3.0885203,-2.9999347,6.327875,-0.20280726,-0.014660766,-0.06841691
1764917070934,2.906561,-2.6120741,4.9559975,-0.7770206,-0.17592919,0.3555236
1764917070992,1.7286136,-3.0454245,4.8458643,-1.3475688,-0.27855456,0.91874135
1764917071049,0.7158663,-3.787627,4.120421,-1.3585643,-0.28710666,1.2803736
1764917071103,-0.095768064,-7.225701,3.7565024,-1.7996091,-0.38240165,1.6884315
1764917071158,-1.5298948,-10.685322,1.769315,-2.3787093,-0.3811799,1.4489723
1764917071214,-0.02633622,-12.876017,1.9847932,-2.769663,-0.27977628,0.88208944
1764917071275,0.7062895,-11.6908865,2.5258827,-1.6701056,-0.24678956,0.61086524
1764917071331,1.5873557,-12.49055,-0.8331822,-1.1142182,-0.4605924,0.45204028
1764917071385,1.364695,-12.492945,0.6512229,0.5045747,-0.5681047,0.20647246
1764917071438,4.024653,-10.3692875,3.2154129,-0.86742866,-0.21746802,0.8368854
1764917071498,0.60812724,-9.150639,2.420538,-1.1484267,0.089186326,0.9639453
1764917071558,1.2856863,-10.972627,0.4261679,-0.9651671,0.11362094,0.79168135
1764917071621,1.0079589,-13.223176,1.2210429,-0.43249258,0.096516706,0.42271876
1764917071679,0.8882488,-12.902353,0.6512229,0.052534413,0.012217305,-0.15515977
1764917071737,0.17238252,-11.702858,0.82599956,0.3726278,-0.0012217305,-0.5571091
1764917071915,1.5251064,-12.421119,2.56419,1.1520919,0.408058,-0.516792
1764917071968,0.9792285,-12.452243,3.0382419,0.829555,0.5742133,-0.7257079
1764917072023,0.8379706,-12.174516,4.295198,-0.02565634,0.7440339,-1.0201449
1764917072076,1.0103531,-11.21444,2.4061728,1.3048081,0.8552113,-1.1618657
1764917072134,1.0055647,-9.488221,0.59615624,-0.5180137,0.72082096,-0.9334021
1764917072188,1.271321,-9.964667,2.8443117,1.7189748,0.57787853,-0.84299403
1764917072243,1.316811,-7.041347,1.6998832,2.4630086,0.24556783,-0.86742866
1764917072298,0.78769237,-6.777985,2.954445,2.3420575,-0.052534413,-0.9822713
1764917072355,0.545878,-5.851429,3.9121256,1.7482964,-0.119729586,-0.8197812
1764917072409,1.9488802,-4.5561657,4.8961425,1.4159856,0.111177474,-0.7244862
1764917072464,3.0238767,-3.5170822,6.1770406,0.8784242,0.05497787,-0.45814893
1764917072525,2.9951463,-3.1986535,5.853823,0.4728097,0.014660766,-0.13561209
1764917072582,2.873042,-0.50038815,4.292804,0.59620446,0.0036651916,0.09162979
1764917072641,1.5825673,-1.7932571,5.255273,-0.4288274,0.20280726,0.44104472
1764917072699,1.8770541,-3.0071173,5.197812,-0.9443977,0.25045475,0.6939429
1764917072754,1.7262194,-4.6950297,4.2880154,-1.4636332,0.16982053,0.9773844
1764917072806,0.8619126,-6.622362,3.9743748,-1.9620992,0.112399206,1.1814134
1764917072904,0.035913024,-8.892065,0.9600749,-2.043955,-0.10262536,1.187522
1764917072961,-1.2641385,-11.60709,1.7932571,-1.5882497,-0.09040806,0.95294976
1764917073015,-0.4165911,-14.4609785,3.514688,-1.7825048,-0.18325958,0.6426302
1764917073124,0.5363012,-13.455414,3.1004913,-0.5412266,-0.9285152,-0.50579643
1764917073177,1.4628572,-10.828975,5.1547165,-0.4092797,-1.1227703,-0.5131268
1764917073230,2.4013844,-6.603208,2.6671407,-0.74281216,-1.1569787,-0.065973446
1764917073285,1.5634137,-8.171411,0.39264908,-0.9944886,-0.63163465,0.5705481
1764917073343,2.0326772,-9.890448,-0.91458505,-0.84665924,-0.11728613,0.91874135
1764917073401,2.6360161,-10.386047,-1.2952632,-0.14294247,0.10751228,0.9419542
1764917073463,2.2050598,-12.423512,0.090979666,-0.27488935,0.31764993,0.25289822
1764917073523,0.8762778,-11.848905,0.94570965,-0.07941248,0.37140608,-0.07696902
1764917073581,0.32800564,-11.18571,1.8890251,0.35185838,0.27366763,-0.312763
1764917073641,0.40940848,-10.783484,2.1068976,1.1264355,0.16249016,-0.41416663
1764917073694,1.5658079,-11.013328,1.7501614,0.9224065,0.11484267,-0.45081854
1764917073748,1.6567876,-11.034876,2.7868507,1.0616838,0.3213151,-0.44104472
1764917073809,1.5298948,-12.016499,2.552219,0.02565634,0.42760566,-0.59742624
1764917073932,1.1659763,-10.955867,2.6671407,0.02321288,0.55833083,-0.61453044
1764917073987,1.496376,-9.203311,2.4133554,0.13194689,0.12950343,-0.56321776
1764917074088,2.0518308,-9.605537,1.4556746,1.1520919,0.052534413,-0.33841935
1764917074143,1.2617443,-8.772355,3.3327289,1.7446312,-0.02565634,-0.54367006
1764917074196,0.31124622,-8.846576,3.1316159,1.9853121,-0.22357668,-0.6646214
1764917074250,1.151611,-6.895301,4.489128,1.6420058,-0.2724459,-0.7440339
1764917074311,1.6304513,-4.7884035,4.201824,1.4624114,-0.16249016,-0.6963864
1764917074366,2.8802247,-3.8833952,5.094861,0.91874135,-0.089186326,-0.48624873
1764917074426,2.9137435,-3.4452562,5.3462524,0.6230826,-0.06719518,-0.2602286
1764917074481,3.0573955,-3.004723,5.130774,0.28710666,0.04153884,0.08674286
1764917074538,2.566584,-3.107674,4.915296,-0.20525073,0.10629055,0.49968776
1764917074591,1.6448165,-3.1747115,3.6727054,-0.7134906,0.3200934,0.91751957
1764917074651,0.60812724,-4.223372,3.6583402,-0.96883225,0.6084218,1.1704178
1764917074708,0.059855044,-7.57286,4.1395745,-1.5760323,0.5839872,1.319469
1764917074781,-1.055843,-10.117896,3.145981,-1.9046779,0.4605924,1.1679744
1764917074835,-0.78290397,-12.066776,3.4261026,-1.9620992,0.40439278,0.8026769
1764917074894,0.050278235,-14.463372,2.303222,-1.709201,0.3213151,0.25778514
1764917074956,-0.37110126,-12.291832,4.19943,-0.7257079,-0.02321288,-0.48747048
1764917075010,0.7302315,-11.662156,4.3478703,-0.06963864,-0.2883284,-0.5510005
1764917075067,2.3894134,-8.796297,3.9360676,-1.3585643,-0.6243043,-0.39584067
1764917075124,1.70946,-6.799533,1.2473791,-1.3267993,-0.5375614,0.18570304
1764917075179,1.0773908,-9.883265,0.60812724,-1.1765264,-0.06719518,0.65484756
1764917075234,1.9752164,-11.7387705,0.9935937,-0.79168135,0.12705997,0.5876524
1764917075291,1.958457,-12.002133,1.0295067,-0.28955013,0.11484267,0.2003638
1764917075351,1.2761095,-11.654974,1.4221559,0.37507126,0.095294975,-0.13927728
1764917075411,1.2976574,-10.699687,1.7429788,0.88697636,-0.004886922,-0.26145032
1764917075467,1.1851299,-10.7356,1.9608512,1.1313224,-0.029321533,-0.25534168
1764917075522,1.2330139,-10.747571,2.5378537,1.609019,-0.042760566,-0.16493362
1764917075575,0.8475474,-11.070788,3.2441432,1.7983873,-0.14538592,-0.32375857
1764917075635,1.0534488,-11.183316,4.1060557,1.632232,-0.21502456,-0.50701815
1764917075695,0.91937345,-9.844957,4.5681367,1.3182472,-0.2321288,-0.64751714
1764917075810,0.7158663,-8.789114,3.6008794,-0.16982053,-0.0842994,-0.6059783
1764917075863,1.1994951,-8.470686,3.5529952,-0.4129449,-0.10629055,-0.51068336
1764917075915,1.4269443,-8.025364,3.9121256,0.61819565,-0.09407325,-0.6609562
1764917075973,1.5705963,-7.869741,3.691859,0.61086524,-0.13683382,-0.7134906
1764917076026,1.472434,-6.184223,3.6774938,1.3060299,-0.081855945,-0.6047566
1764917076079,1.8315643,-5.899313,3.4596214,0.816116,-0.039095376,-0.4092797
1764917076141,1.9871874,-4.261679,4.417302,0.34574974,0.058643065,-0.13805555
1764917076196,1.7310078,-4.072537,4.098873,-0.19914207,0.04520403,0.25534168
1764917076250,1.7429788,-4.817134,3.8426938,-0.41538838,0.1160644,0.548557
1764917076305,1.5442601,-6.2129536,3.857059,-0.8051204,0.24801129,0.8356637
1764917076359,1.0869676,-7.189788,3.7253778,-1.1252137,0.32498032,0.99204516
1764917076418,0.23463176,-8.89446,4.010288,-1.3096951,0.41050145,0.97249746
1764917076478,0.581791,-10.070012,3.7134068,-1.2217305,0.25167647,0.79779
1764917076539,0.46926352,-10.793061,3.7421372,-1.1569787,0.13805555,0.59131753
1764917076597,0.7589619,-10.328587,3.3854012,-0.6963864,0.06719518,0.54611355
1764917076655,0.059855044,-10.67814,2.5785553,-0.47891834,0.002443461,0.5314528
1764917076709,-0.05746084,-10.414778,2.992752,-0.6597345,0.034208454,0.6206391
1764917076830,-1.0726024,-10.086772,1.412579,-0.28710666,0.0061086523,0.50946164
1764917076884,-1.2258313,-9.911995,2.3343468,-0.018325957,0.09407325,0.52778757
1764917076941,-1.1659763,-10.374076,2.4779987,-0.008552114,0.18081611,0.4801401
1764917077001,-1.6998832,-9.674969,1.8411411,-0.118507855,0.17592919,0.2846632
1764917077157,-1.4556746,-10.204087,1.5179238,-0.40194935,0.07941248,0.10995574
1764917077210,-1.1851299,-10.8385515,1.6352397,-0.1001819,0.036651913,0.05131268
1764917077264,-1.7070658,-10.448297,1.769315,0.28099802,-0.015882496,-0.059864793
1764917077321,-1.9273324,-10.386047,1.7741034,0.6365216,-0.20647246,-0.16493362
1764917077379,-1.8363527,-9.619903,2.6024973,0.9810496,-0.26267207,-0.16493362
1764917077433,-1.8363527,-9.346964,3.4117374,1.3365731,-0.49235737,-0.16249016
1764917077488,-1.4269443,-8.829816,4.295198,1.5467108,-0.68661255,-0.05497787
1764917077544,-2.0254946,-10.668563,4.9823337,1.627345,-0.88086766,-0.13194689
1764917077608,-1.8219875,-10.651803,5.267244,1.2767084,-0.9114109,-0.44837508
1764917077662,-0.02633622,-6.8761473,5.434838,0.9443977,-0.66828656,-0.6646214
1764917077719,0.49559975,-7.0485296,6.232107,0.89675015,-0.7318166,-0.46181414
1764917077864,1.4628572,-9.662998,5.0278234,-2.4923303,-0.15149458,-1.0763446
1764917077916,2.006341,-8.698134,3.4955344,-2.348166,0.20280726,-1.2449434
1764917077968,3.0454245,-9.911995,-0.6584055,-1.8044959,0.3567453,-0.88697636
1764917078023,1.2473791,-8.264784,-0.7517793,0.34697145,0.80878556,-0.8344419
1764917078107,1.5682021,-8.497022,3.5242648,0.77946407,0.4728097,-0.548557
1764917078161,1.7956513,-6.291962,3.8857894,1.2669345,0.17104226,-0.5155703
1764917078215,2.5378537,-8.166622,3.0262709,0.7684685,0.13072516,-0.4251622
1764917078268,2.8060043,-7.041347,5.8921304,0.5363397,0.034208454,-0.25045475
1764917078325,3.2513258,-6.339846,5.032612,0.7257079,-0.0720821,-0.103847094
1764917078386,3.3063924,-7.2951326,5.0374002,0.376293,-0.095294975,0.0061086523
1764917078446,3.2441432,-6.2991447,5.097255,0.1160644,-0.021991149,0.17470746
1764917078499,3.1483753,-6.3470287,4.560954,-0.029321533,-0.017104227,0.3042109
1764917078555,2.5450363,-6.131551,4.098873,-0.31887165,-0.002443461,0.52290064
1764917078607,1.8650831,-6.0525417,4.357447,-0.47403142,0.065973446,0.8051204
1764917078666,1.6567876,-7.129933,4.1156325,-0.7611381,0.043982297,0.99204516
1764917078723,1.1683705,-8.152257,3.25372,-0.9260717,0.12217305,1.2119566
1764917078777,0.5650316,-9.0716305,4.2185836,-0.42638394,0.21991149,1.314582
1764917078846,0.007182605,-10.800244,4.4316673,-0.19914207,0.14782938,1.0763446
1764917078896,-0.6895301,-10.699687,3.7229836,-0.3408628,0.1563815,0.91507614
1764917078948,-0.8379706,-10.010158,3.643975,-0.61453044,0.13683382,0.65118235
1764917079000,-0.12928689,-8.726865,3.3782187,-0.91629785,0.112399206,0.6597345
1764917079087,-0.7302315,-9.61272,2.2577322,-0.86254174,0.40317106,0.7892379
1764917079139,-1.6759412,-9.928755,2.0350714,-1.0005972,0.41538838,0.6817256
1764917079191,-1.9273324,-10.603919,2.1643584,-0.52534413,0.34208453,0.61941737
1764917079248,-2.054225,-10.6877165,2.4947581,-0.453262,0.21746802,0.47525316
1764917079308,-2.4851813,-10.651803,2.2050598,-0.105068825,0.05497787,0.28099802
1764917079363,-2.4349031,-10.850522,2.2720973,0.21135938,-0.029321533,0.07819075
1764917079419,-2.1499932,-10.833763,2.0350714,0.44837508,-0.15027285,-0.16737708
1764917079491,-2.1906946,-10.362105,2.44448,0.84665924,-0.21502456,-0.39461896
1764917079545,-1.910573,-10.010158,2.861071,0.9492846,-0.22968534,-0.48258355
1764917079598,-1.7357962,-10.206482,4.0342298,0.9602802,-0.22357668,-0.79534656
1764917079650,-1.163582,-11.010934,4.321534,-0.09773844,-0.3005457,-0.98349303
1764917079709,-0.79248077,-10.7116585,4.256891,-1.1838568,-0.26267207,-1.0531317
1764917079763,-0.1436521,-10.9343195,1.6927006,-1.0641272,-0.07696902,-1.2498302
1764917079862,0.6943185,-7.9367785,1.3862427,0.87598073,0.14538592,-0.86009824
1764917079914,1.1492168,-7.9631147,1.6807296,0.41050145,-0.10995574,-0.60231316
1764917079969,1.1779473,-5.7963624,2.066196,0.82711154,-0.15271631,-0.2687807
1764917080024,0.033518825,-7.393295,1.3862427,0.3494149,-0.2443461,0.4801401
1764917080076,-1.1204864,-8.221688,1.3000516,0.103847094,-0.040317107,0.9602802
1764917080135,-1.376666,-9.100361,1.9393034,-0.20158553,0.065973446,0.8894198
1764917080198,-1.2114661,-9.610326,2.528277,-0.31887165,0.008552114,0.64996064
1764917080255,-0.94810385,-9.548077,2.6910827,-0.312763,0.05131268,0.57910025
1764917080316,-0.9600749,-9.370906,2.5905263,-0.4569272,0.06719518,0.5656612
1764917080374,-0.79248077,-9.093178,2.0518308,-0.41905355,-0.007330383,0.5717699
1764917080438,-1.1994951,-9.588778,1.9776106,-0.47158796,0.018325957,0.6035349
1764917080499,-1.5993267,-9.619903,1.8674773,-0.5363397,0.12095132,0.593761
1764917080561,-1.910573,-9.234436,0.6368576,-0.49357912,0.18448131,0.47036624
1764917080616,-2.135628,-9.809045,0.7565677,-0.73548174,0.25045475,0.36041048
1764917080672,-2.3104045,-9.646238,0.24420857,-0.7696902,0.28099802,0.37140608
1764917080727,-2.5450363,-9.933543,0.2777274,-0.79290307,0.29810223,0.36896262
1764917080781,-3.1268275,-9.540894,-0.5243302,-0.8210029,0.32498032,0.39950588
1764917080893,-3.205836,-10.125079,-0.557849,-0.376293,0.36285394,-0.12705997
1764917080946,-2.4181437,-9.062054,-0.9911995,-0.25778514,0.25411993,-0.10873401
1764917080998,-3.095703,-9.126697,-1.1755531,-0.22602014,0.23335053,0.09040806
1764917081057,-2.456451,-9.325416,-1.0845734,-0.35185838,0.13316862,0.22113322
1764917081128,-2.7605145,-10.084377,-1.4460979,-0.3726278,0.032986723,0.22479841
1764917081180,-2.8323407,-10.374076,-1.5107412,-0.07941248,0.007330383,0.057421334
1764917081235,-2.7581203,-11.386824,-1.3551182,0.030543262,-0.002443461,-0.080634214
1764917081290,-2.3702598,-11.801021,-1.1779473,0.31398472,0,-0.3286455
1764917081343,-2.123657,-11.413159,-0.2753332,0.81000733,-0.018325957,-0.6218608
1764917081399,-2.3870192,-11.528081,0.15562311,1.1068878,-0.21135938,-0.9224065
1764917081459,-2.2146366,-11.980585,-0.12449849,1.2168436,-0.2602286,-1.0482447
1764917081514,-1.8387469,-11.745954,0.7062895,2.1209242,-0.2932153,-1.319469
1764917081568,-0.7733272,-11.326968,1.0941502,1.9682078,-0.10873401,-1.5968018
1764917081624,-0.10534488,-10.632649,2.6503813,1.817935,-0.10140363,-1.6285667
1764917081683,0.7134721,-9.390059,3.217807,1.704314,-0.18570304,-1.4330899
1764917081743,1.4221559,-8.664616,2.6264393,1.4257594,-0.089186326,-1.2986995
1764917081800,1.8842367,-8.461109,3.4261026,1.2400564,0.035430185,-1.2034045
1764917081854,2.3008277,-7.07726,4.0078936,1.2168436,-0.058643065,-1.1753048
1764917081938,2.4851813,-5.695806,4.0940847,1.6200147,0.09162979,-0.91996306
1764917081989,2.791639,-4.5633483,5.0517654,1.269378,0.052534413,-0.86742866
1764917082045,3.1124623,-3.169923,5.2289367,0.8185594,0.08674286,-0.6817256
1764917082127,3.1531637,-2.1739352,5.801151,0.24801129,-0.010995574,-0.16126843
1764917082181,2.7700913,-2.5330653,5.389348,-0.24556783,-0.04642576,0.37751472
1764917082234,2.5091233,-2.6072857,4.7141833,-0.44104472,0.14782938,0.6267477
1764917082287,2.5953147,-4.0533834,4.295198,-1.282817,0.103847094,0.9822713
1764917082345,1.5107412,-4.8027687,4.1395745,-1.5125023,0.13805555,1.4147639
1764917082406,1.2808979,-6.9360023,3.9935284,-1.6920967,0.12705997,1.6872098
1764917082459,0.045489833,-8.240842,3.8642416,-1.9315559,0.095294975,1.8790215
1764917082513,-1.1420342,-10.718841,3.2848446,-1.7275269,0.18203785,1.7654005
1764917082569,-0.37828386,-13.687651,3.8738184,-2.0060816,-0.10629055,1.3573426
1764917082627,0.6631939,-12.449849,1.4532804,-0.5546656,-0.2883284,0.8063421
1764917082684,-2.9472623,-13.062764,5.765238,0.39950588,0.10140363,0.344528
1764917082739,-1.4030021,-12.313379,6.181829,-0.32375857,-0.021991149,-0.16493362
1764917082794,1.5227122,-8.212111,2.9017725,-1.2657127,0.09040806,-0.19792034
1764917082846,0.60333884,-6.7085533,2.0015526,-1.0225884,0.36774087,0.20158553
1764917082930,0.1388637,-11.109096,2.078167,-0.73792523,0.19547687,0.35918877
1764917082987,0.08379706,-12.703634,2.5713725,-0.004886922,0.10751228,0.12339478
1764917083041,0.5291186,-13.201628,2.066196,0.15149458,-0.035430185,-0.13439035
1764917083145,0.1412579,-10.383653,2.5234885,1.6957619,0.010995574,-0.6927212
1764917083197,0.4213795,-10.673351,2.8299465,1.813048,0.002443461,-0.7464773
1764917083249,0.5482722,-10.3932295,4.3382936,1.8411479,0.02076942,-0.7965683
1764917083306,0.5506664,-10.402806,4.63278,1.7715092,0.039095376,-0.78801614
1764917083360,0.15562311,-9.363723,5.3965306,1.0372492,0.10140363,-0.81122905
1764917083414,0.39743748,-10.196905,4.9344497,-0.14172074,0.062308256,-0.91629785
1764917083475,1.7980455,-6.220136,4.197036,-2.8576276,-0.17470746,-1.4343116
1764917083529,2.633622,-8.841787,1.3623008,-0.02443461,-0.042760566,-0.9334021
1764917083584,2.1667526,-7.8386164,2.4732103,1.097114,0.02443461,-0.816116
1764917083640,2.0949266,-6.7205243,3.0933087,1.5088371,0.043982297,-0.6621779
1764917083759,2.0805612,-6.0884547,3.7469256,0.6291912,0.062308256,-0.4813618
1764917083810,2.6001031,-4.5034933,5.097255,0.48258355,0.056199603,-0.37140608
1764917083862,3.1842883,-5.058948,5.1762643,0.20525073,-0.032986723,-0.14049901
1764917083913,2.791639,-5.1259856,4.5561657,-0.15271631,-0.07941248,0.2565634
1764917083967,2.5594015,-4.88896,4.177882,-0.37507126,-0.0012217305,0.5131268
1764917084022,2.1021092,-5.257667,3.715801,-0.91874135,0.04886922,0.93462384
1764917084074,1.2234371,-6.5696893,2.822764,-1.2339478,-0.008552114,1.3084733
1764917084128,0.37828386,-7.4962454,2.779668,-1.187522,-0.15271631,1.4807373
1764917084179,-1.1707647,-11.054029,1.6089035,-1.5015068,-0.27366763,1.46852
1764917084230,-0.5315128,-11.923124,0.9576807,-1.4001031,-0.40683624,0.9651671
1764917084281,0.8283938,-13.757083,2.5378537,-0.57910025,-0.3408628,0.5839872
1764917084333,0.7541735,-14.903906,2.4013844,0.8918633,-0.4813618,0.12705997
1764917084386,2.8802247,-10.503363,4.757279,-0.91629785,-0.70738196,0.04520403
1764917084446,2.6024973,-8.6095495,2.5761611,-2.3591616,-0.080634214,0.15760323
1764917084499,1.316811,-8.24563,1.4700398,-2.0451767,0.18570304,0.4801401
1764917084555,1.553837,-11.599907,0.8714894,-0.8258898,0.27000242,0.6365216
1764917084607,1.8794483,-13.587094,1.1851299,-0.52412236,0.13439035,0.44959682
1764917084663,1.7860745,-12.955026,1.541866,0.22113322,-0.030543262,-0.11362094
1764917084717,1.2761095,-11.556811,1.3311762,1.1239921,-0.09407325,-0.5131268
1764917084787,1.4772224,-11.362882,1.388637,1.4941764,-0.087964594,-0.6414085
1764917084838,1.7764976,-10.357317,2.4660277,1.9975294,0.017104227,-0.6719518
1764917084889,2.0039468,-10.405201,2.9975405,1.9168952,0.059864793,-0.74281216
1764917084943,1.6400281,-9.653421,3.799598,1.6798794,0.043982297,-0.77213365
1764917084998,1.9919758,-8.868123,4.1635165,0.8857546,0.029321533,-0.64996064
1764917085051,1.6687586,-8.836999,4.570531,-0.06352998,0.008552114,-0.56321776
1764917085104,2.5785553,-9.31105,3.241749,-1.3585643,-0.09407325,-0.49480084
1764917085160,1.3359646,-8.791509,2.743755,1.4636332,-0.172264,-0.5045747
1764917085222,1.9201498,-7.8529816,3.8379054,1.9022343,-0.18936823,-0.3408628
1764917085281,1.8076223,-7.1059904,4.1060557,1.6701056,-0.17715092,-0.4166101
1764917085341,1.8555063,-6.4188547,3.8546648,1.0677924,-0.06352998,-0.32375857
1764917085398,2.4995465,-4.781221,4.2281604,0.48258355,0.14049901,-0.19792034
1764917085453,2.3678656,-4.1659107,4.343082,0.05009095,0.23457226,-0.04153884
1764917085510,1.99437,-4.120421,3.6750996,-0.593761,0.3005457,0.4166101
1764917085569,1.0007763,-5.437232,3.8833952,-1.0396926,0.5290093,0.5888741
1764917085623,1.0534488,-7.2592196,4.3287168,-1.3646729,0.47036624,0.81489426
1764917085682,0.94810385,-9.0429,3.976769,-1.4172074,0.4007276,0.8588765
1764917085740,0.62009823,-10.606314,5.0302176,-1.3304645,0.38240165,0.5852089
1764917085797,1.2569559,-11.573571,4.6591167,-1.0262536,0.33841935,0.36285394
1764917085848,1.2808979,-10.994174,4.3981485,-0.05131268,0.2125811,0.10262536
1764917085899,1.5993267,-9.296685,5.2504845,-0.8784242,0.14172074,0.059864793
1764917085951,0.5410896,-8.255207,5.145139,-1.2547172,-0.06963864,0.24678956
1764917086002,0.7254431,-10.290278,2.9903579,-1.7336355,-0.081855945,0.38362336
1764917086057,1.5705963,-9.454702,2.7820623,-1.3109168,-0.15760323,0.5131268
1764917086111,0.9552865,-9.3661175,1.9201498,-0.829555,-0.14049901,0.3640757
1764917086162,0.23942018,-10.254366,1.3934253,-0.7892379,-0.08674286,0.50701815
1764917086217,0.031124622,-10.029311,0.770933,-0.5131268,-0.21380283,0.5009095
1764917086271,-0.07182605,-10.783484,0.62249243,-0.22602014,-0.15760323,0.43249258
1764917086335,-0.110133275,-10.860099,0.016759412,-0.089186326,-0.15882497,0.25778514
1764917086386,-0.5674258,-10.340557,0.32321724,0.14538592,-0.172264,0.09162979
1764917086437,-0.61291564,-9.904813,0.78529817,0.3567453,-0.26145032,0.11728613
1764917086490,-1.2617443,-9.751583,0.37588966,0.48502702,-0.37995818,0.11728613
1764917086544,-0.81402856,-9.210494,0.7637503,0.4886922,-0.30787608,0.1966986
1764917086599,-0.7062895,-10.680533,0.9504981,0.5681047,-0.29810223,0.18325958
1764917086656,-0.16759412,-11.398794,0.6991069,0.013439035,-0.23945917,-0.10262536
1764917086711,-0.6775591,-10.307038,1.6448165,-0.06352998,-0.16982053,-0.12583824
1764917086765,-1.2665327,-9.272743,2.2697031,0.3286455,-0.080634214,-0.119729586
1764917086863,-1.0414777,-10.5440645,1.8866309,-0.05131268,-0.24312437,-0.14782938
1764917086914,-1.0414777,-9.323022,2.0015526,0.42638394,-0.21624629,-0.1160644
1764917086965,-0.34476504,-9.488221,1.8076223,0.18692477,-0.2406809,-0.043982297
1764917087017,-0.23463176,-9.033323,2.054225,0.33475417,-0.19547687,0.06719518
1764917087068,-0.51954174,-9.509769,2.432509,0.2932153,-0.16615535,-0.015882496
1764917087154,-0.36391866,-8.896853,2.6719291,0.2846632,-0.13439035,-0.013439035
1764917087208,-0.06943185,-9.469068,2.44448,0.007330383,-0.172264,0.013439035
1764917087262,-0.20590134,-8.35337,2.6431987,0.48991394,-0.064751714,-0.38240165
1764917087315,-0.44532153,-9.933543,2.5474305,0.13439035,-0.15149458,0.09773844
1764917087371,-0.35434186,-9.890448,2.4947581,-0.02076942,-0.09407325,0.0012217305
1764917087429,-0.021547815,-10.134656,2.3175871,-0.267559,-0.15271631,-0.021991149
1764917087486,-0.36870706,-9.459491,2.6743233,0.20525073,-0.10262536,0.032986723
1764917087567,-0.56982,-9.313444,2.3702598,0.05497787,0.02321288,-0.08307768
