t,ax,ay,az,gx,gy,gz
1764917092252,-4.663905,6.694188,4.685453,0.09285152,0.1881465,-0.16249016
1764917092305,-5.1642933,6.0501475,5.4204726,0.030543262,0.017104227,-0.17470746
1764917092358,-5.1810527,5.884948,5.494693,0.04642576,-0.07086037,-0.17959438
1764917092418,-6.0477533,5.7604494,4.9919105,0.09285152,-0.052534413,-0.15515977
1764917092470,-6.184223,6.0381765,4.8003745,0.0720821,-0.13316862,-0.13194689
1764917092522,-5.4324436,7.0461354,4.584896,0.021991149,-0.38362336,-0.07452556
1764917092578,0.6751649,8.219295,5.5856724,-0.073303826,-1.0824533,-0.13561209
1764917092632,-3.9264908,7.443573,5.7365074,-0.02076942,-0.41416663,-0.17592919
1764917092684,-5.8801594,6.2464724,4.7381253,0.13561209,0.20280726,-0.24556783
1764917092737,-2.6384103,8.329428,5.2528787,0.25900686,-0.7318166,-0.11362094
1764917092790,-8.535329,5.085284,4.3143516,0.33964106,-0.15271631,-0.029321533
1764917092843,-7.551312,6.1387334,2.0111294,0.32253686,-1.7336355,-0.040317107
1764917092903,-5.547365,6.576872,2.8754363,-0.267559,-1.0555751,0.21135938
1764917092955,-6.0525417,3.9360676,6.3302693,-0.41416663,-0.4373795,0.39828414
1764917093009,-5.1259856,5.2409077,6.3350577,-0.4092797,-0.40194935,0.5180137
1764917093062,-2.8562827,4.5872903,7.5920134,-0.38362336,-0.7965683,0.53023106
1764917093118,-2.4756045,4.912902,7.3549876,-0.35430184,-0.70005155,0.51923543
1764917093173,-0.8714894,5.815516,8.295909,-0.32375857,0.012217305,0.44959682
1764917093226,-0.007182605,5.6096144,10.160992,-0.25411993,-0.38240165,0.33475417
1764917093280,0.33997664,5.729325,9.643845,-0.13194689,-0.27488935,0.26267207
1764917093338,-2.9257145,6.217742,6.9743094,-0.10873401,-0.007330383,0.14782938
1764917093393,-1.3694834,5.494693,7.8984714,-0.095294975,-0.28955013,0.17715092
1764917093453,-0.19393034,5.837064,8.195353,-0.039095376,-0.49968776,0.13927728
1764917093505,0.1340753,6.528988,7.16824,0.018325957,-0.4801401,0.040317107
1764917093558,0.9648633,6.7372837,7.0126166,-0.07696902,0.44348818,0.05375614
1764917093614,-2.540248,6.3542113,8.47308,-0.081855945,0.50946164,-0.0012217305
1764917093667,-1.8195933,7.45315,11.836933,-0.002443461,-0.15882497,0.06719518
1764917093721,-2.6623523,8.008605,16.270994,0.19425514,-0.04642576,0.12461651
1764917093774,-3.2106245,5.877765,21.475988,0.8918633,0.028099801,0.23335053
1764917093827,-2.60968,4.6830587,17.860744,1.5344934,-0.19547687,0.29565877
1764917093881,-1.9081788,4.072537,12.761095,1.890017,-0.20769419,0.33108896
1764917093935,0.17717093,4.912902,5.1547165,2.0964894,-0.51923543,0.23090707
1764917093988,0.48841715,5.0182467,3.347094,2.035403,-0.22602014,0.21013765
1764917094044,-0.18195933,4.84347,2.8993783,1.9596558,-0.13316862,0.1881465
1764917094104,0.9888053,4.7381253,1.7118542,1.8167132,-0.43249258,0.035430185
1764917094161,1.4197617,4.7740383,1.0462662,1.7592919,-0.7867944,-0.105068825
1764917094216,1.2761095,5.779603,-2.135628,1.5931365,-0.6389651,-0.33964106
1764917094271,1.7764976,5.439626,-1.9560628,1.4746287,-0.31031954,-0.42394048
1764917094324,-0.4357447,5.650316,-2.4947581,1.3878858,0.16982053,-0.44348818
1764917094377,-1.7812861,6.5241995,-3.6296098,1.2351695,0.10262536,-0.41050145
1764917094431,-2.1571758,6.7851677,-4.546589,1.1508701,0.12950343,-0.3481932
1764917094486,-2.4588451,7.541735,-6.0860605,1.0360274,0.061086524,-0.29810223
1764917094539,-2.6839,8.049306,-9.157822,0.7147123,-0.12217305,-0.172264
1764917094593,-3.3063924,8.334216,-9.902418,0.49602258,0.017104227,-0.10140363
1764917094655,-3.2992098,7.9511437,-9.452309,-0.02321288,-0.06841691,0.062308256
1764917094707,-2.822764,7.2711906,-9.303867,-0.2321288,-0.21746802,0.13072516
1764917094760,-1.922544,6.1938,-9.433155,-0.43127087,-0.16615535,0.18448131
1764917094812,-2.0925324,2.932897,-15.641319,-0.98349303,0.065973446,0.22602014
1764917094866,-2.432509,1.6112977,-18.710686,-1.4404203,0.5534439,0.23579398
1764917094923,-1.5370775,1.079785,-17.176003,-2.1160371,0.68661255,0.19792034
1764917094976,-1.0295067,-2.695871,-6.921637,-3.4147367,0.20158553,0.13805555
1764917095028,-0.581791,-4.546589,-2.6048915,-3.7678168,0.3494149,0.15515977
1764917095081,0.39264908,-5.8921304,2.2457612,-3.935194,0.14538592,0.09285152
1764917095138,0.090979666,-8.329428,9.397242,-3.9461894,0.10262536,-0.04520403
1764917095192,-2.2768857,-8.980651,13.5296335,-3.8545597,-0.09896017,-0.0842994
1764917095245,-2.1428106,-8.099585,19.184738,-3.6297612,-0.35918877,0.034208454
1764917095299,1.6424223,-3.3255463,30.44467,-2.5008824,-0.38973203,0.17837265
1764917095353,1.9608512,-0.2777274,32.776623,-1.6811012,-0.31031954,0.112399206
1764917095406,1.328782,2.56419,32.71437,-0.87109387,-0.12461651,0.07452556
1764917095459,0.93373865,3.6415808,33.360806,0.5546656,0.12217305,-0.007330383
1764917095511,-0.24660277,1.8435353,34.186806,1.2547172,0.15027285,-0.010995574
1764917095564,-0.4285621,-2.2505496,32.790985,2.021964,0.4642576,0.05009095
1764917095622,-0.8355764,-8.429984,21.332336,3.3426547,0.37873647,0.15882497
1764917095676,0.35434186,-9.045294,15.21994,3.717726,0.09773844,0.15882497
1764917095730,2.4013844,-9.054871,6.3685765,3.9901717,-0.5839872,-0.11362094
1764917095789,1.6950948,-8.367735,2.5115175,3.935194,-0.2919936,-0.2846632
1764917095842,-0.1316811,-7.0940194,-0.36391866,3.789808,-0.04886922,-0.32742378
1764917095896,-1.115698,-4.3837833,-4.9655743,3.4037411,0.30787608,-0.21991149
1764917095950,-1.1109096,-3.3782187,-7.326257,3.1667254,0.17470746,-0.15393804
1764917096003,-1.2880806,-1.9847932,-9.540894,2.8942795,0.27000242,-0.08674286
1764917096056,-1.8411411,0.92895025,-13.275848,2.2699752,0.30787608,0.039095376
1764917096109,-1.7286136,2.6839,-15.969325,1.9010127,0.112399206,0.0842994
1764917096162,-1.6041151,4.0318356,-17.211916,1.473407,0.20158553,0.12705997
1764917096214,-0.2681506,5.614403,-18.772936,0.548557,-0.16493362,0.14905111
1764917096267,-0.5506664,5.6551046,-19.146431,0.07574729,0.02687807,0.14172074
1764917096324,-0.62967503,5.48751,-18.598158,-0.38606682,-0.04886922,0.12950343
1764917096377,-0.91219085,3.4284968,-16.625336,-1.346347,-0.08552113,0.16982053
1764917096429,-0.1316811,1.8507179,-15.557523,-1.7654005,-0.27855456,0.17348573
1764917096481,-0.023942016,-0.035913024,-13.8241205,-2.1697934,-0.02443461,0.19058995
1764917096533,0.89543146,-3.4739866,-8.3629465,-2.910162,0.23457226,0.034208454
1764917096588,-0.6512229,-3.2249897,-8.288726,-3.2449162,0.07086037,-0.029321533
1764917096641,-1.5442601,-4.9344497,-5.2648497,-3.6468656,0.017104227,-0.02687807
1764917096693,-0.7134721,-7.5441294,2.0231004,-4.2650614,-0.004886922,0.14660765
1764917096746,0.34955344,-8.889671,6.8689647,-4.3725734,0.11728613,0.19547687
1764917096799,2.15957,-9.809045,12.74673,-4.321261,-0.1282817,0.16737708
1764917096851,2.5330653,-7.735666,26.266787,-3.4709363,-0.593761,0.05497787
1764917096904,2.7246015,-4.7429137,30.700848,-2.7708848,-0.56321776,0.047647487
1764917096960,2.183512,-0.8690952,31.380802,-1.9657644,0.04153884,0.028099801
1764917097013,0.91937345,4.8482585,31.165323,-0.5009095,0.25778514,-0.07452556
1764917097066,0.89543146,4.7381253,31.4646,0.15515977,0.119729586,-0.07819075
1764917097121,0.8523358,3.3566709,29.604303,0.816116,0.26389378,-0.05375614
1764917097178,1.0486604,-0.9600749,25.615564,2.0378466,0.35063666,-0.056199603
1764917097231,0.60333884,-2.8395233,22.625206,2.5644124,0.38606682,-0.061086524
1764917097284,0.055066638,-4.6232033,18.933348,2.9981265,0.36896262,-0.032986723
1764917097336,-0.6967127,-6.55293,10.752359,3.530801,0.51068336,0.07819075
1764917097396,-0.50757074,-6.6726403,7.5944076,3.6370916,0.5510005,0.16371189
1764917097450,-0.60333884,-6.2345014,2.2218192,3.707952,0.21991149,0.24556783
1764917097504,-0.107739076,-5.947197,-0.92416185,3.6981783,0.002443461,0.267559
1764917097557,0.5506664,-4.4699745,-4.5322237,3.5479054,0.2284636,0.2773328
1764917097612,2.8898015,-0.37110126,-12.337321,3.0604348,0.7501425,0.36896262
1764917097665,2.2864625,2.018312,-15.849615,2.6303856,-0.02565634,0.24190263
1764917097719,1.8267759,3.0909145,-16.627731,1.9608774,-0.118507855,0.16493362
1764917097773,1.163582,4.1802764,-16.263813,1.2253957,-0.24678956,0.05009095
1764917097826,0.6823475,4.6782703,-16.527174,0.7012733,-0.18448131,0.008552114
1764917097882,0.7493851,4.7285485,-16.543934,0.30176744,-0.17470746,-0.02565634
1764917097934,0.94570965,3.6990416,-17.132908,-0.5363397,-0.058643065,-0.12339478
1764917097990,1.4341269,3.028665,-18.004396,-0.98349303,0.039095376,-0.17592919
1764917098046,1.0342951,2.5498247,-17.867928,-1.4782939,-0.0842994,-0.24801129
1764917098099,0.28491,-0.1316811,-16.01721,-2.5314255,-0.172264,-0.30543262
1764917098152,0.47405192,-1.8531121,-13.290214,-3.0176742,-0.13439035,-0.31642818
1764917098205,0.78290397,-3.1890767,-9.624691,-3.4599407,-0.02687807,-0.3481932
1764917098259,-0.260968,-5.861006,-1.6950948,-4.125784,0.13683382,-0.47647488
1764917098312,2.2002714,-7.4962454,1.3263878,-4.3689084,-0.11484267,-0.5180137
1764917098367,-1.3215994,-9.375694,9.320627,-4.4263296,0.376293,-0.6951646
1764917098419,-2.7700913,-9.938332,16.287754,-3.8606684,-0.16249016,-0.74281216
1764917098471,-3.5745432,-7.589619,18.634071,-3.431841,-0.15271631,-0.6218608
1764917098525,-5.5282116,-5.542577,21.959618,-2.978579,-0.54611355,-0.52778757
1764917098578,-4.1299977,-1.3503298,26.625917,-1.9669861,-0.516792,-0.2284636
1764917098631,-3.892972,0.30885202,28.8214,-1.3683381,-0.10262536,-0.08674286
1764917098684,-2.944868,1.7956513,30.274681,-0.6951646,-0.21135938,-0.017104227
1764917098738,-3.7565024,1.3359646,31.883585,0.6780604,0.19181168,0.14538592
1764917098795,-4.367024,-0.56982,31.5053,1.391551,0.61941737,0.28344148
1764917098850,-4.7907977,-5.0278234,25.012226,2.6951375,0.5045747,0.54611355
1764917098903,-4.7429137,-7.074866,20.058622,3.164282,0.2883284,0.6914995
1764917098956,-2.8874073,-8.961497,16.110582,3.5417967,0.042760566,0.79045963
1764917099011,-0.095768064,-10.383653,8.111555,3.9852848,-0.2565634,0.73426
1764917099064,0.61530983,-10.577583,4.429273,4.097684,-0.52656585,0.5864306
1764917099117,0.12928689,-9.603143,0.06943185,4.0915756,-0.2602286,0.5021312
1764917099169,-0.06943185,-5.947197,-7.0461354,3.7836993,0.43249258,0.44715336
1764917099223,0.9792285,-3.8163576,-10.42196,3.4953709,0.18692477,0.4801401
1764917099279,1.520318,-1.9656396,-12.988544,3.0983086,0.657291,0.53878313
1764917099332,2.372654,1.9536686,-18.590977,2.2626448,0.06963864,0.3921755
1764917099388,2.1930888,3.5170822,-19.22544,1.7397442,-0.16493362,0.29443705
1764917099441,1.8602947,4.4963107,-19.586964,1.2168436,-0.089186326,0.21868975
1764917099494,1.8076223,4.31914,-18.863914,0.2284636,-0.09407325,0.08552113
1764917099549,1.8507179,4.3502645,-18.794483,-0.23335053,0.013439035,0.032986723
1764917099603,2.0757728,3.928885,-17.973272,-0.69027776,-0.064751714,-0.039095376
1764917099667,3.5242648,0.85473,-14.647726,-1.5491543,-0.061086524,-0.18936823
1764917099720,4.975151,-1.3000516,-12.955026,-1.8851302,0.12095132,-0.3481932
1764917099773,1.6711528,-1.6663644,-14.204799,-2.6254988,0.61086524,-0.73548174
1764917099825,0.6464345,-2.2984335,-13.747506,-3.1386256,0.019547688,-0.88208944
1764917099880,-0.1316811,-4.185065,-11.106702,-3.6713002,-0.103847094,-0.9114109
1764917099934,0.045489833,-9.112331,-0.39504328,-4.486194,-0.52412236,-0.92485
1764917099988,-0.06464344,-10.445902,5.3438582,-4.6486845,-0.18936823,-0.8405506
1764917100041,-1.0845734,-13.280637,13.467384,-4.5912633,-0.30176744,-0.8527679
1764917100094,-3.691859,-8.987833,23.264458,-3.626096,-0.2932153,-0.74281216
1764917100148,-5.245696,-5.121197,24.011448,-3.032335,-0.38606682,-0.63285637
1764917100201,-6.229713,-2.111686,27.341784,-2.4410176,-0.32742378,-0.47769663
1764917100253,-5.66947,2.7844565,29.211655,-1.1227703,-0.3481932,-0.12217305
1764917100304,-5.9448028,3.490746,30.68409,-0.34208453,-0.2968805,0.05375614
1764917100356,-5.142745,2.7126305,32.683247,0.17837265,-0.103847094,0.16249016
1764917100409,-4.0533834,0.1340753,29.759928,1.6896533,0.30787608,0.35308012
1764917100463,-3.7924154,-2.6623523,25.158272,2.4764478,0.47158796,0.46914452
1764917100519,-3.8426938,-4.819528,20.752941,2.9749138,0.43249258,0.5656612
1764917100571,-2.779668,-8.157045,12.11466,3.5882225,0.22724187,0.7305948
1764917100624,-1.4341269,-8.932767,8.106767,3.7641516,0.07819075,0.7464773
1764917100677,-1.1707647,-9.009381,4.771644,3.8631117,0.052534413,0.7476991
1764917100731,-0.08619126,-7.357382,-2.9472623,3.8606684,-0.047647487,0.7672467
1764917100786,-0.016759412,-4.4819455,-7.4746976,3.6248744,-0.3042109,0.71959925
1764917100839,0.80924016,-2.7605145,-10.065224,3.3035593,-0.41050145,0.6621779
1764917100891,1.9416976,0.93852705,-14.20001,2.565634,-0.2406809,0.54000485
1764917100943,1.9057846,2.1547816,-14.927848,2.147802,-0.16737708,0.45937067
1764917100999,2.3127987,3.6894648,-15.799337,1.7214183,-0.15027285,0.3811799
1764917101051,1.982399,5.3725886,-16.021997,0.8894198,-0.05009095,0.24923302
1764917101103,2.066196,5.770026,-15.698781,0.50946164,-0.02687807,0.19303341
1764917101156,2.3247697,5.568913,-16.263813,0.16249016,0.16249016,0.13561209
1764917101209,2.3343468,5.3558292,-16.445772,-0.5925393,0.028099801,-0.017104227
1764917101264,2.4229321,4.2281604,-15.904682,-0.9981538,0.013439035,-0.07452556
1764917101317,2.8083985,2.8107927,-15.401899,-1.3768903,-0.02687807,-0.15027285
1764917101371,3.3423057,-0.29688102,-13.153744,-2.1368067,0.2125811,-0.40683624
1764917101423,2.1188686,-1.0941502,-12.471396,-2.488665,0.5338962,-0.5681047
1764917101479,1.7381904,-2.315193,-10.527305,-2.869845,0.33964106,-0.73792523
1764917101534,-1.5753847,-5.777209,-6.117185,-3.6554177,0.02565634,-0.9089675
1764917101588,-2.1428106,-6.993463,-3.1627405,-3.9364157,0.021991149,-0.8417723
1764917101646,-0.6895301,-9.074024,7.548918,-4.288274,-0.39584067,-0.6792821
1764917101697,-1.6256629,-9.5385,13.591883,-4.1331143,-0.3408628,-0.59498274
1764917101748,-0.557849,-9.090784,17.183186,-3.930307,-0.5839872,-0.5448918
1764917101804,-2.4636335,-5.106832,24.181437,-3.0176742,-0.14538592,-0.376293
1764917101857,-3.821146,-3.095703,27.621904,-2.4471262,-0.13683382,-0.32620203
1764917101910,-3.3854012,-0.545878,30.660147,-1.7837266,-0.27366763,-0.23579398
1764917101963,-3.526659,1.8507179,35.041534,-0.21502456,-0.02687807,-0.05375614
1764917102017,-3.7253778,1.6184803,34.881126,0.6450737,0.20647246,0.04153884
1764917102070,-3.9983168,-0.61770403,35.07984,1.500285,0.41050145,0.13927728
1764917102123,-3.8618474,-3.13401,30.846895,2.3445008,0.54611355,0.25045475
1764917102177,-3.8355112,-8.169016,20.288465,3.4843755,0.10995574,0.48747048
1764917102229,-3.1028855,-9.114726,14.070724,3.8166862,0.11362094,0.5864306
1764917102280,-0.9768343,-10.029311,9.504981,3.9852848,-0.18448131,0.59742624
1764917102333,-0.15801731,-8.985439,2.4372973,3.98895,0.10751228,0.59131753
1764917102386,-0.31603462,-8.042124,0.20829555,3.9058723,0.02565634,0.5558874
1764917102439,-0.34237084,-7.752425,-1.4173675,3.8240163,-0.28344148,0.50946164
1764917102491,0.2896984,-5.2648497,-7.153875,3.540575,0.11362094,0.46670106
1764917102543,0.093373865,-3.5098996,-9.907207,3.296229,0.43249258,0.51068336
1764917102596,0.8834604,-2.3798366,-10.644621,2.9846876,0.32253686,0.5497787
1764917102650,1.8052281,-0.25617957,-15.45936,2.3921483,-0.12339478,0.5131268
1764917102706,2.5474305,0.91458505,-18.344374,2.0158553,-0.07452556,0.41905355
1764917102758,2.7222073,2.5330653,-21.42571,1.5589281,-0.26389378,0.3042109
1764917102810,2.861071,4.6255975,-23.568521,0.40194935,0.04886922,0.112399206
1764917102869,2.882619,3.964798,-22.776041,-0.22235495,0.06719518,0.037873644
1764917102922,2.8682537,0.9888053,-20.020315,-1.3854424,-0.33353242,-0.12339478
1764917102973,2.801216,-0.4189853,-18.499996,-1.8887954,-0.20280726,-0.1966986
1764917103024,2.4061728,-2.0374656,-15.840038,-2.3554964,-0.37873647,-0.28588495
1764917103075,2.0829554,-3.0573955,-13.515268,-2.7354546,-0.10995574,-0.34208453
1764917103126,0.32561144,-4.1299977,-8.0924015,-3.440393,-0.15515977,-0.43371433
1764917103179,-0.02873042,-4.489128,-5.046977,-3.79836,-0.31031954,-0.44226643
1764917103242,-0.8355764,-6.631939,1.3431472,-4.170988,-0.39461896,-0.37507126
1764917103294,-0.21308395,-7.6949644,4.4963107,-4.2320743,-0.39706242,-0.24801129
1764917103345,-0.7110779,-8.695741,11.03727,-4.197866,-0.6780604,-0.20525073
1764917103397,0.40222588,-7.61835,16.160862,-3.9474113,-0.5839872,-0.059864793
1764917103449,1.1324574,-3.0430303,22.809559,-2.9773571,-0.66339964,0.058643065
1764917103503,1.1109096,-0.7038953,25.412056,-2.420248,-0.6414085,0.06719518
1764917103556,0.9552865,2.0231004,26.738445,-1.7935003,-0.31031954,0.10140363
1764917103609,2.5019407,5.4922986,30.727184,-0.5497787,-0.012217305,0.018325957
1764917103662,3.347094,5.3725886,32.50129,0.172264,0.12339478,-0.06963864
1764917103715,2.243367,4.0342298,32.43425,0.9297369,0.29565877,-0.15882497
1764917103786,1.541866,-0.93613285,27.155035,2.3860397,0.43127087,-0.21746802
1764917103839,0.58418524,-3.3638535,22.888569,2.9565878,0.45570546,-0.20647246
1764917103890,0.21068975,-7.764396,14.4130945,3.7543778,0.16737708,-0.18081611
1764917103943,-0.04070143,-9.205706,10.196905,3.9767327,-0.111177474,-0.17837265
1764917103995,0.5410896,-10.618284,6.5816603,4.102571,0.2883284,-0.1441642
1764917104048,-0.15801731,-10.850522,-0.7110779,4.162436,0.46303585,0.0036651916
1764917104102,0.8403648,-9.354146,-4.745308,4.0781364,0.37873647,0.052534413
1764917104156,0.29448682,-8.130709,-7.8865004,3.9156463,0.20769419,0.03176499
1764917104208,0.5291186,-2.4636335,-17.676392,3.2192597,-0.10995574,-0.061086524
1764917104261,0.641646,-0.7350199,-20.408175,2.692694,-0.119729586,-0.12705997
1764917104314,-0.20111294,0.79248077,-22.37142,2.1111503,-0.16615535,-0.1881465
1764917104366,-1.1683705,2.1619642,-22.218191,0.84665924,-0.064751714,-0.18936823
1764917104420,-1.1013328,1.9608512,-21.449654,0.28955013,-0.039095376,-0.17348573
1764917104476,-1.1779473,2.1284454,-21.18629,-0.2443461,0.034208454,-0.16493362
1764917104529,-0.5410896,0.4237737,-19.007566,-1.4416419,-0.043982297,-0.16615535
1764917104582,-1.340753,-1.2641385,-18.095377,-1.9327776,-0.05131268,-0.18081611
1764917104634,-2.1188686,-2.2649148,-17.228676,-2.4251351,0.0012217305,-0.13927728
1764917104686,-1.1540052,-4.2904096,-13.623008,-3.3756413,0,-0.029321533
1764917104746,0.30166942,-3.8833952,-10.486604,-3.758043,0.21502456,-0.062308256
1764917104801,1.1204864,-6.0740895,-3.9145198,-4.0598106,-0.07452556,-0.1685988
1764917104853,-0.10055647,-8.267179,0.01436521,-4.515516,-0.28221974,-0.3555236
1764917104905,1.2808979,-10.984597,3.3327289,-4.619363,-0.3042109,-0.36651915
1764917104960,0.44771573,-13.113043,7.855376,-4.6205845,-0.56321776,-0.43371433
1764917105013,-2.8443117,-12.569559,18.08101,-4.125784,-0.56321776,-0.25900686
1764917105065,-4.309563,-10.022128,27.593174,-3.5515707,-1.0348058,-0.118507855
1764917105121,-2.705448,-5.485116,32.008083,-2.7305677,-0.6536258,0.10751228
1764917105178,-0.2873042,1.1779473,34.0647,-0.97249746,-0.24556783,0.23457226
1764917105231,0.78050977,2.992752,33.947388,-0.18448131,-0.23823744,0.19303341
1764917105283,-0.7302315,-0.033518825,35.606567,1.3756685,0.07941248,0.21991149
1764917105336,-0.36152446,-3.1794999,33.332077,2.271197,0.10751228,0.24312437
1764917105390,-0.29448682,-6.658275,27.404032,3.0677652,0.41905355,0.3200934
1764917105464,1.6041151,-10.036493,14.276625,4.047593,0.05375614,0.2602286
1764917105522,0.5291186,-10.510546,9.19134,4.269948,0.16982053,0.2321288
1764917105573,-0.5770026,-11.109096,3.0909145,4.456873,-0.22724187,0.2724459
1764917105625,0.5650316,-9.847352,-0.4261679,4.383569,-0.11728613,0.22357668
1764917105683,1.5945383,-9.052477,-5.473145,4.125784,-0.0012217305,-0.009773844
1764917105735,0.878672,-6.993463,-10.299856,3.938859,-0.052534413,-0.08307768
1764917105787,-0.641646,-5.4803276,-13.905523,3.5906658,0.23701571,-0.061086524
1764917105845,-1.0390835,-0.50278234,-21.210234,2.4507914,0.10751228,-0.040317107
1764917105898,-1.13964,1.1492168,-22.515072,1.8680259,0.010995574,-0.015882496
1764917105950,-1.0151415,2.5761611,-22.34269,1.2498302,-0.019547688,0.012217305
1764917106002,-0.49559975,2.8993783,-22.067358,0.10995574,-0.06963864,0.029321533
1764917106054,-0.1340753,1.8028339,-21.746534,-0.44959682,-0.17959438,0.018325957
1764917106109,-0.85473,0.81642276,-21.9261,-1.0030408,-0.052534413,0.019547688
1764917106163,0.36631286,-2.1404164,-22.723368,-2.2162192,0.0012217305,-0.015882496
1764917106217,1.5753847,-3.217807,-22.340296,-2.8600712,0.22724187,-0.09162979
1764917106269,1.7142484,-4.429273,-19.606117,-3.5295794,0.23335053,-0.267559
1764917106321,0.50757074,-9.504981,-9.543288,-4.6108108,0.9761627,-0.6951646
1764917106373,-0.20590134,-12.040441,-4.7381253,-4.9052477,0.42638394,-0.91507614
1764917106425,-0.06943185,-14.4370365,-2.2601264,-5.0335298,1.473407,-0.9932669
1764917106478,-1.7310078,-18.088194,4.6160207,-5.059186,0.6792821,-1.346347
1764917106530,-3.833117,-20.15439,14.15452,-4.940678,0.40439278,-0.9016371
1764917106583,-3.7014358,-17.786524,21.39698,-4.4580946,-0.22968534,-0.92485
1764917106637,-8.841787,-10.929531,30.066385,-3.6432004,-0.4129449,-0.79412484
1764917106690,-8.248025,-2.7485435,31.495724,-1.9327776,-0.45570546,-0.2761111
1764917106747,-5.5880666,-1.4676456,32.146946,-1.1716396,-0.41172317,-0.08552113
1764917106805,-4.8961425,0.062249243,34.033577,0.34208453,-0.65240407,0.16737708
1764917106858,-2.1930888,-1.2880806,33.267433,1.1704178,-1.6029104,0.16249016
1764917106914,-0.30645782,-2.9257145,29.381643,1.9242256,-1.0910053,0.17959438
1764917106968,1.2976574,-6.6893997,19.740192,3.0030136,-0.816116,-0.07696902
1764917107020,1.079785,-7.2807674,14.652514,3.35365,-1.0152581,-0.20647246
1764917107073,2.2529438,-7.845799,10.362105,3.5845573,-1.409877,-0.45570546
1764917107125,1.8315643,-7.2089415,5.3079453,3.694513,-0.8185594,-0.84788096
1764917107176,3.4979286,-7.3286514,4.072537,3.6981783,-0.5864306,-1.0946705
1764917107227,2.291251,-7.8050976,1.7405846,3.7189476,0.45570546,-1.0714576
1764917107277,1.2018893,-6.6630635,-4.0198646,3.7543778,1.2437216,-0.7415904
1764917107328,-0.9792285,-5.6431336,-6.991069,3.6994,1.0861185,-0.64996064
1764917107381,-2.3104045,-4.2185836,-11.008539,3.5124753,0.6206391,-0.56199604
1764917107432,-3.0454245,-2.6743233,-14.516045,3.2253685,0.30298916,-0.43982297
1764917107485,-3.9815574,1.1755531,-19.5726,2.3811526,-0.1563815,-0.22113322
1764917107535,-3.6511576,2.3008277,-21.222204,1.8643607,-0.14049901,-0.13439035
1764917107586,-3.514688,3.1196449,-21.490355,1.3182472,-0.16249016,-0.0720821
1764917107637,-3.572149,3.502717,-22.629995,0.25045475,0.052534413,0.05131268
1764917107688,-3.8163576,2.6719291,-23.851038,-0.312763,-0.034208454,0.103847094
1764917107739,-3.8786068,0.8331822,-25.53895,-0.9334021,0.06352998,0.2003638
1764917107790,-3.4356794,-1.9728222,-28.531702,-1.613906,-0.2724459,0.24678956
1764917107841,-1.6927006,-6.093243,-24.763227,-3.363424,-0.25778514,0.4361578
1764917107892,-1.1683705,-8.9040365,-17.372328,-4.1404448,-0.38362336,0.453262
1764917107943,0.11971009,-10.70687,-9.473856,-4.664567,0.29810223,0.51923543
1764917107994,-0.6655881,-12.567164,-3.6870706,-4.982217,1.2681563,0.40439278
1764917108045,-0.4333505,-17.025167,-0.4333505,-5.1202726,2.64749,-0.28955013
1764917108097,-2.4133554,-18.574217,4.7022123,-5.1471505,1.4355333,-0.81000733
1764917108150,-4.1826706,-19.275719,10.85531,-4.9076915,1.4489723,-1.0445796
1764917108202,-5.753267,-12.679692,25.543737,-3.8789942,-0.8881981,-0.99204516
1764917108255,-5.509058,-9.208099,29.132647,-3.1337388,-0.95417154,-0.7635816
1764917108307,-8.152257,-4.2425256,32.819717,-2.1270328,-0.23457226,-0.40317106
1764917108359,-7.6949644,0.7086837,36.504395,-0.7012733,-0.41172317,-0.017104227
1764917108412,-4.5082817,-0.7230489,37.8643,0.38973203,-0.8857546,0.17592919
1764917108467,-4.0414124,-2.2337902,37.916973,1.2962561,-0.5681047,0.3323107
1764917108519,-0.79966336,-8.722076,27.890055,3.0543263,0.4129449,0.4813618
1764917108573,0.94570965,-10.960655,21.423317,3.6798522,-0.68294734,0.31520647
1764917108628,1.5897499,-12.186486,14.793773,4.1001277,-0.6450737,0.080634214
1764917108680,1.4915876,-12.4785795,4.4005427,4.454429,-0.002443461,-0.12339478
1764917108731,0.8451532,-11.384429,1.42455,4.4446554,0.21135938,-0.1563815
1764917108782,0.9504981,-11.449073,-0.521936,4.3982296,0.5363397,-0.12950343
1764917108837,-0.45729253,-10.9582615,-3.7445314,4.283387,-1.237613,-0.20891592
1764917108890,1.9153614,-7.1945763,-10.512939,4.1636577,-2.2186625,-0.6939429
1764917108942,-1.6400281,-8.109161,-12.155362,3.8496728,-1.1899655,-0.86132
1764917108996,-4.7309427,-2.954445,-21.250935,2.9358184,-0.27122417,-0.78801614
1764917109050,-6.2584434,-0.44532153,-25.11757,2.3359487,0.49602258,-0.6206391
1764917109104,-7.029376,1.6687586,-25.598804,1.640784,0.112399206,-0.46181414
1764917109157,-7.1706343,3.1603463,-26.580427,0.1881465,-0.10751228,-0.064751714
1764917109210,-6.5720835,2.1906946,-25.922022,-0.52778757,-0.06719518,0.12705997
1764917109263,-5.793968,-0.22266077,-25.82386,-1.2119566,-0.2761111,0.30298916
1764917109320,-5.7628436,-4.5202527,-22.874203,-2.6230555,-0.111177474,0.657291
1764917109373,-3.4500446,-5.935226,-19.062634,-3.3060026,-0.2968805,0.7696902
1764917109425,-1.3383588,-7.311892,-13.199234,-3.8570032,0.5375614,0.8527679
1764917109481,0.12928689,-8.750807,-4.465186,-4.5265117,5.9938097,0.1685988
1764917109539,0.61770403,-10.776301,-2.6479871,-4.4409904,5.154481,-0.9896017
1764917109590,1.70946,-11.061212,-1.5562311,-4.1966443,3.3499851,-2.003638
1764917109641,-2.0398598,-15.028404,0.62488663,-3.7617083,0.50335294,-3.095865
1764917109693,-8.935161,-15.598224,5.8681884,-3.6994,-4.0463715,-3.1716123
1764917109745,-9.892841,-14.721947,16.429012,-3.684739,-2.0024164,-2.2553146
1764917109798,-12.006922,-6.6367273,30.162153,-2.629164,-0.12217305,-1.1166617
1764917109850,-14.669273,-4.537012,33.743877,-1.7910569,0.119729586,-0.8014552
1764917109904,-14.738706,-2.0566192,33.588257,-0.8918633,0.13927728,-0.47647488
1764917109958,-16.381128,-0.01436521,30.121452,0.6230826,-0.13805555,0.19425514
1764917110010,-16.30212,-1.5610195,29.364883,1.2449434,-0.63041294,0.5363397
1764917110063,-12.430696,-6.0142345,28.067226,1.9523253,-0.9822713,0.8491027
1764917110116,-4.1036615,-11.482592,21.485565,3.395189,-1.6346754,1.0409144
1764917110174,-2.5737667,-12.540829,16.596605,3.957185,-0.5363397,1.0030408
1764917110227,-2.1619642,-13.306973,11.113884,4.344474,-1.2449434,0.8051204
1764917110279,-0.45250413,-11.865664,1.6112977,4.607146,0.17959438,0.5314528
1764917110331,0.49799395,-11.87524,-2.468422,4.5949283,-0.25778514,0.3933972
1764917110384,-1.4149733,-8.008605,-4.8698063,4.3640213,1.2840388,0.54611355
1764917110437,1.5251064,-5.4922986,-13.984532,4.0011673,-1.4367551,0.535118
1764917110489,-0.36631286,-5.020641,-14.326903,3.644422,-0.032986723,0.5729916
1764917110541,0.47165772,-2.348712,-19.440918,3.2241468,-0.6218608,0.46670106
1764917110594,2.5091233,1.4580688,-25.395298,1.998751,-0.105068825,0.3933972
1764917110646,2.7605145,3.4979286,-26.994625,1.2669345,0.22602014,0.3005457
1764917110699,2.4133554,3.6535518,-26.477476,0.48624873,-0.014660766,0.18325958
1764917110753,3.1986535,2.8754363,-27.281929,-0.27366763,-0.3567453,0.059864793
1764917110809,5.221754,-1.970428,-28.943504,-1.8277088,0.23823744,-0.118507855
1764917110861,5.097255,-5.094861,-28.936321,-2.692694,0.6291912,-0.3494149
1764917110915,2.0159178,-11.08276,-20.776882,-4.500855,-0.8002335,-0.9272934
1764917110968,0.81163436,-14.001291,-13.266272,-5.191133,-1.7910569,-0.7501425
1764917111021,3.0573955,-17.769766,-7.2687964,-5.6236253,0.17959438,-0.40683624
1764917111078,-4.441244,-22.390574,8.264784,-5.1984634,1.269378,-1.4086553
1764917111130,-6.2464724,-21.775265,15.150508,-4.673119,0.47158796,-1.5308284
1764917111183,-6.0884547,-17.549498,21.5957,-4.234518,0.21746802,-1.3756685
1764917111240,-13.678074,-7.4986396,29.096733,-2.7207937,-0.43127087,-1.0225884
1764917111293,-13.232753,-2.4708161,28.373684,-2.01219,-0.6805039,-0.6072
1764917111346,-11.492168,-1.541866,29.709648,-1.3451253,-0.45448375,-0.22602014
1764917111398,-8.544906,0.7469909,34.785355,0.089186326,-0.9932669,0.33964106
1764917111451,-7.007828,-0.9935937,38.2354,0.9334021,-1.0775663,0.4801401
1764917111504,-4.1491513,-4.06296,37.411797,1.9669861,-0.6988298,0.63041294
1764917111559,-0.4309563,-12.835316,25.898079,3.8179078,-0.14294247,0.5021312
1764917111611,-0.48123455,-15.045163,16.417042,4.3640213,-0.2773328,0.3848451
1764917111662,0.28491,-14.458584,8.255207,4.6169195,0.4972443,0.3921755
1764917111715,0.21308395,-11.573571,-2.777274,4.564385,-0.84421575,0.16615535
1764917111767,0.0047884034,-9.696517,-6.3925185,4.338365,-0.7110472,0.029321533
1764917111822,0.20829555,-7.1251445,-9.636662,4.043928,-0.7110472,-0.10873401
1764917111877,-0.8810662,-2.554613,-15.722723,3.2302554,-0.22357668,-0.09773844
1764917111930,-1.5825673,0.20590134,-18.09777,2.7452285,-0.07086037,-0.07696902
1764917111983,-2.3295584,2.2984335,-19.594147,2.1966715,-0.10140363,-0.05009095
1764917112035,-2.4516625,4.39336,-19.503166,1.1325442,-0.19181168,0.04153884
1764917112091,-2.3989902,4.996699,-18.725052,0.6401868,-0.018325957,0.112399206
1764917112145,-2.255338,5.109226,-17.762583,0.17715092,-0.064751714,0.14538592
1764917112197,-1.8124107,4.7022123,-14.659697,-0.6230826,-0.014660766,0.21502456
1764917112248,-1.4628572,4.4819455,-12.332533,-0.9419542,-0.06963864,0.24678956
1764917112299,-0.8690952,3.8618474,-10.254366,-1.2388347,-0.096516706,0.25534168
1764917112352,-1.0055647,4.259285,-7.0844426,-1.5222762,0.042760566,0.2687807
1764917112404,-1.6927006,4.915296,-5.4444146,-1.7153096,0.007330383,0.28221974
1764917112457,-0.9624691,5.631162,-5.0182467,-1.8387043,0.019547688,0.31642818
1764917112511,-0.62488663,7.455544,-1.2401965,-1.9486601,-0.19792034,0.35796702
1764917112561,0.8858546,6.71813,2.0949266,-1.9168952,-0.14660765,0.37507126
1764917112612,1.541866,7.48188,4.5298295,-1.8020525,0.16493362,0.3371976
1764917112664,1.4580688,7.9870567,5.777209,-1.6236799,0.37384954,0.26511553
1764917112715,1.1085154,9.375694,6.1100025,-1.2229522,0.23457226,0.095294975
1764917112767,1.436521,9.205706,6.505046,-1.0543534,-0.112399206,0.035430185
1764917112819,1.6639702,9.730036,6.2225304,-0.8881981,0.20769419,0.02076942
1764917112873,0.8499416,10.208876,6.3182983,-0.6010914,0.2846632,-0.06352998
1764917112925,0.79008657,10.060435,6.253655,-0.47769663,-0.04520403,-0.10995574
1764917112980,0.7134721,9.773131,6.0357823,-0.35185838,0.03176499,-0.11362094
1764917113036,0.7326257,9.0476885,5.6000376,-0.12461651,-0.05009095,-0.16371189
1764917113089,0.47165772,9.382876,4.548983,-0.04520403,0.30787608,-0.1685988
1764917113146,0.01436521,9.543288,3.1723173,-0.02076942,0.3921755,-0.18448131
1764917113198,-0.58418524,8.9279785,3.3159695,-0.007330383,0.062308256,-0.118507855
1764917113251,-0.8714894,8.331821,3.4596214,0.05375614,-0.012217305,-0.06352998
1764917113304,-0.9696517,7.9750857,3.2082303,0.12583824,-0.30787608,-0.034208454
1764917113357,-0.80684596,7.833828,2.9975405,0.12583824,-0.047647487,-0.008552114
1764917113411,-0.8834604,8.054094,3.3686419,0.04886922,0.50823987,0.013439035
1764917113465,-1.2018893,8.916007,3.5170822,0.0012217305,0.24556783,-0.02687807
1764917113517,-1.364695,10.395624,3.3686419,-0.06841691,-0.119729586,-0.05131268
1764917113571,-1.292869,11.358093,3.6631286,-0.1001819,-0.02687807,-0.02443461
1764917113625,-1.2378023,11.968615,4.1922474,-0.09407325,0.05009095,-0.0036651916
1764917113681,-0.85473,11.087548,4.173094,0.05497787,0.058643065,0.02687807
1764917113733,-0.9624691,9.083601,4.498705,0.10140363,0.12217305,0.06719518
1764917113786,-0.4285621,8.010999,4.5537715,0.14660765,0.19303341,0.08552113
1764917113838,-0.6368576,9.006987,4.6591167,0.23335053,0.1160644,0.10140363
1764917113892,-0.21547815,10.201694,5.032612,0.3042109,0.036651913,0.111177474
1764917113945,-0.06703765,11.312603,4.0557775,0.44348818,0.1881465,0.11728613
1764917113999,0.272939,9.593566,2.516306,0.6585127,0.31764993,0.089186326
1764917114051,-0.23463176,7.536947,1.5346833,0.73426,-0.25900686,0.056199603
1764917114104,-0.39743748,5.7987566,0.5410896,0.75991637,-0.09896017,0.06963864
1764917114157,-0.23223756,5.1475334,-1.7884687,0.4972443,-0.19303341,-0.043982297
1764917114213,-0.33039984,5.7365074,-1.2138603,0.24678956,1.269378,0.05009095
1764917114266,-0.61291564,9.069236,-1.70946,0.04153884,1.7592919,0.12705997
1764917114325,-6.6750345,0.40701428,6.847417,0.07696902,1.7434094,0.15760323
1764917114376,4.525041,8.688558,1.9033904,0.28710666,-0.5534439,0.05375614
1764917114429,-1.4796166,10.500969,0.2681506,0.24923302,-0.33841935,-0.043982297
1764917114482,-1.4891934,9.461885,0.22505496,0.20769419,0.13439035,0.02443461
1764917114534,0.2633622,9.672575,0.079008654,0.2003638,-0.15027285,-0.009773844
1764917114586,-2.0231004,9.809045,0.8403648,0.18448131,0.039095376,0.017104227
1764917114638,-0.37349546,9.837775,0.2681506,0.204029,-0.08307768,0.062308256
1764917114690,0.93852705,9.809045,-0.37588966,0.19303341,-0.06963864,0.04520403
1764917114743,0.14844051,9.811439,-0.09816227,0.17959438,-0.061086524,0.0061086523
1764917114798,-0.6895301,9.840169,-0.14844051,0.15760323,-0.017104227,-0.02076942
1764917114851,-0.58657944,9.801862,-0.35913026,0.15027285,-0.03176499,-0.012217305
1764917114904,-0.6943185,9.866506,-0.6871359,0.12950343,-0.015882496,0
1764917114956,-0.2657564,9.876082,-0.8403648,0.08307768,-0.009773844,0.0036651916
1764917115008,-0.31364042,9.861717,-0.78050977,0.058643065,-0.04642576,-0.0061086523
1764917115061,-0.51235914,9.878476,-0.85473,0.039095376,-0.05375614,-0.007330383
1764917115115,-0.770933,9.80665,-0.6919243,-0.008552114,0.002443461,0.0036651916
1764917115171,-0.5770026,9.821015,-0.47884035,-0.019547688,-0.008552114,0.014660766
1764917115223,-0.7374141,9.80665,-0.033518825,-0.03176499,0.021991149,0.021991149
1764917115276,-0.46686932,9.854534,0.088585466,-0.018325957,0.009773844,0.02565634
1764917115331,-0.15562311,9.8042555,-0.12689269,-0.009773844,-0.004886922,0.02321288
1764917115387,-0.61770403,9.840169,-0.01436521,-0.008552114,0.018325957,0.02321288
1764917115440,-0.48123455,9.830592,-0.08619126,-0.004886922,0.008552114,0.02687807
1764917115493,-0.15083471,9.7803135,-0.18674773,-0.002443461,0.010995574,0.032986723
1764917115546,-0.047884032,9.809045,-0.16759412,-0.002443461,0.013439035,0.02443461
1764917115605,-0.1388637,9.828198,-0.11252748,-0.002443461,0.013439035,0.012217305
1764917115658,-0.2825158,9.787497,0.062249243,0,0.009773844,0.009773844
1764917115711,-0.22266077,9.904813,-0.19871874,0.008552114,0.004886922,0.014660766
1764917115764,-0.30406362,9.842564,-0.23702596,0.008552114,0.007330383,0.013439035
1764917115817,-0.20111294,9.832987,-0.19871874,0.008552114,-0.002443461,0.013439035
1764917115873,-0.23702596,9.811439,-0.16998832,0.0036651916,0.009773844,0.007330383
1764917115925,-0.23942018,9.82341,-0.22026655,0.0061086523,0.004886922,0.0036651916
1764917115978,-0.32321724,9.82341,-0.18435353,0.002443461,0.0061086523,0.0036651916
1764917116032,-0.2825158,9.809045,-0.18435353,0.0012217305,0.018325957,0.0036651916
1764917116086,-0.22266077,9.792285,-0.095768064,0.0036651916,0,0.004886922
1764917116141,-0.21068975,9.825804,-0.08379706,0.004886922,0.0012217305,0.002443461
1764917116194,-0.2633622,9.821015,-0.16998832,0.0061086523,-0.0012217305,-0.0012217305
1764917116245,-0.37588966,9.80665,-0.18914193,0.004886922,0.0036651916,0
1764917116297,-0.23463176,9.844957,-0.17477672,0.004886922,0.0012217305,0
1764917116353,-0.12449849,9.821015,-0.30406362,0.004886922,0,-0.004886922
1764917116405,-0.1364695,9.818622,-0.24660277,0.002443461,-0.0012217305,-0.008552114
1764917116457,-0.22266077,9.828198,-0.21547815,0.0012217305,0.004886922,-0.012217305
1764917116511,-0.24899697,9.811439,-0.10295067,0.002443461,-0.007330383,-0.019547688
1764917116563,-0.25617957,9.832987,-0.1316811,0.004886922,-0.0061086523,-0.02443461
1764917116617,-0.38067806,9.758766,-0.10534488,0.008552114,-0.0036651916,-0.02443461
1764917116674,-0.48362875,9.816227,-0.30166942,0.012217305,-0.008552114,-0.019547688
1764917116727,-0.5363012,9.825804,-0.25857377,0.007330383,-0.002443461,-0.013439035
1764917116779,-0.39743748,9.770737,-0.29688102,0.0061086523,-0.002443461,-0.008552114
1764917116832,-0.866701,9.811439,-0.107739076,0.012217305,-0.012217305,0.014660766
1764917116888,-0.7134721,9.82341,-0.39504328,0.014660766,-0.014660766,0.032986723
1764917116940,-0.02873042,9.904813,-0.5650316,0.007330383,-0.018325957,0.040317107
1764917116993,0.4141969,9.785102,-0.39743748,-0.019547688,0.0061086523,-0.009773844
1764917117045,-0.059855044,9.768343,-0.08619126,-0.021991149,0.012217305,-0.029321533
1764917117098,-0.35673606,9.770737,-0.14604631,-0.018325957,0.0012217305,-0.035430185
1764917117156,-0.8714894,9.890448,-0.17956513,-0.010995574,-0.012217305,-0.017104227
1764917117209,-1.0414777,9.794679,-0.21068975,-0.008552114,-0.018325957,0.0061086523
1764917117261,-0.91458505,9.888053,-0.4357447,-0.013439035,-0.018325957,0.02443461
1764917117314,-2.5498247,9.854534,-1.2473791,-0.018325957,-0.5852089,-0.0061086523
1764917117373,-0.7254431,9.818622,-4.307169,-0.010995574,-1.6065756,-0.080634214
1764917117430,-0.1388637,10.13705,-0.82599956,-0.3042109,0.22724187,0.10751228
1764917117483,-4.4699745,28.459875,3.9815574,-0.24312437,-2.7134633,-0.16371189
1764917117542,0.50517654,16.249447,-0.4405331,-0.3371976,-0.46181414,0.1282817
1764917117594,1.9249382,11.918336,1.3383588,-0.21624629,-0.47036624,0.10873401
1764917117646,1.4772224,9.0716305,0.39504328,-0.26267207,0.98471475,0.1685988
1764917117698,0.6799533,6.8091097,-0.1316811,-0.30787608,0.75991637,0.043982297
1764917117756,0.62728083,4.8626237,0.45729253,-0.4447099,0.28588495,-0.1001819
1764917117809,0.59615624,6.1770406,0.4141969,-0.43127087,0.25900686,-0.172264
1764917117861,-0.8499416,7.345411,0.91458505,-0.43004912,0.12217305,-0.22113322
1764917117914,0.11252748,8.947132,1.1468226,-0.535118,0.10262536,-0.19547687
1764917117968,0.9792285,9.193734,2.3175871,-0.5815437,0.015882496,-0.21135938
1764917118024,1.2569559,9.742006,2.6144683,-0.6206391,0.41538838,-0.27000242
1764917118077,-2.4061728,8.3821,5.1523223,-0.13316862,0.22113322,-0.27122417
1764917118130,-5.4300494,9.200917,6.033388,-0.008552114,0.29565877,-0.13194689
1764917118183,-2.5929205,8.231265,7.1395097,0.20525073,-0.51923543,-0.04642576
1764917118235,-2.2601264,8.89446,6.6726403,0.5864306,0.02076942,0.07452556
1764917118291,-1.6065093,9.751583,5.815516,0.71959925,0.24678956,0.12095132
1764917118345,-1.1180922,9.866506,5.568913,0.8881981,-0.018325957,0.10995574
1764917118398,-0.6799533,9.344569,2.2529438,1.1447614,0.018325957,0.0842994
1764917118450,-0.6895301,8.870518,0.7062895,1.1887437,0.0036651916,0.07941248
1764917118507,-0.50278234,8.623915,-0.6631939,1.1936307,0.047647487,0.07819075
1764917118559,-0.7637503,7.867347,-2.566584,1.142318,-0.030543262,0.09162979
1764917118612,-0.59615624,7.8146744,-3.8067808,1.0922271,-0.14172074,0.096516706
1764917118666,-0.2633622,8.032547,-5.29358,1.0030408,-0.30298916,0.09285152
1764917118719,-0.49799395,8.09719,-7.285556,0.70738196,-0.3286455,0.07086037
1764917118773,-0.37588966,8.14268,-8.099585,0.5204572,-0.31642818,0.064751714
1764917118829,0.35913026,7.359776,-12.315774,0.013439035,-0.3323107,0.029321533
1764917118881,1.0055647,6.26802,-15.622166,-0.3200934,-0.15271631,-0.0036651916
1764917118933,1.4580688,4.84347,-21.808783,-0.7855727,-0.28588495,-0.09040806
1764917118989,1.7525556,0.6991069,-26.364948,-1.5393804,-0.3371976,-0.16982053
1764917119043,1.0486604,-4.5154643,-21.03785,-3.602883,0.64873886,-0.36041048
1764917119095,1.0414777,-10.474632,-13.374011,-4.422664,-0.27122417,-0.5534439
1764917119148,1.2186487,-19.395428,2.1284454,-5.241224,-1.5662584,-0.6768387
1764917119201,0.1340753,-21.90455,11.015722,-5.343849,0.06841691,-0.5021312
1764917119254,-1.1133038,-22.16073,20.793642,-5.1019464,-0.24678956,-0.548557
1764917119307,-2.1571758,-12.629414,37.694313,-3.4293976,-0.06963864,-0.516792
1764917119361,-3.9193082,-6.5098343,37.67755,-2.2369885,-0.012217305,-0.46181414
1764917119414,-6.303933,-1.9919758,37.77332,-1.1838568,0.095294975,-0.31031954
1764917119470,-6.361394,1.5179238,31.105469,0.40561453,-0.04520403,0.14049901
1764917119524,-4.948815,0.17477672,29.884426,0.9639453,-0.39584067,0.29565877
1764917119577,-3.205836,-1.721431,29.475018,1.5723672,-0.66828656,0.3726278
1764917119630,0.02633622,-5.3199162,22.383392,2.7036896,-0.7440339,0.3323107
1764917119682,0.2633622,-6.315904,17.82962,3.0787609,-0.39584067,0.26389378
1764917119735,1.3000516,-7.3645644,14.738706,3.3426547,-0.54611355,0.14294247
1764917119793,0.33279404,-7.4866686,7.1586633,3.5662313,-0.17348573,-0.062308256
1764917119849,0.89064306,-6.682217,4.462792,3.530801,-0.052534413,-0.12339478
1764917119902,0.31364042,-5.6646814,2.5570073,3.4684927,0.25167647,-0.118507855
1764917119957,0.7469909,-3.7708676,-1.3311762,3.3341024,0.056199603,-0.17592919
1764917120009,-0.30406362,-2.066196,-4.1299977,3.2155948,-0.1441642,-0.2125811
1764917120061,-0.37828386,-1.0151415,-6.0477533,3.0250046,-0.09285152,-0.2321288
1764917120116,-1.757344,1.2018893,-10.228029,2.4813347,0.22235495,-0.16493362
1764917120168,-2.0231004,2.3127987,-12.109872,2.212554,-0.02321288,-0.12339478
1764917120220,-2.3415294,3.7062242,-14.4609785,1.8985692,0.05009095,-0.07941248
1764917120274,-1.8076223,5.2241483,-15.909471,1.1398746,-0.037873644,0.035430185
1764917120327,-1.8291701,5.3103395,-15.701175,0.7635816,0.081855945,0.08307768
1764917120384,-1.436521,5.0493712,-15.574282,0.42271876,-0.05131268,0.10751228
1764917120437,-0.5363012,3.5314474,-16.587029,-0.28710666,-0.06719518,0.12461651
1764917120489,0.050278235,1.4437037,-18.720263,-0.68661255,0.087964594,0.12095132
1764917120548,-0.48841715,-3.1555579,-25.35699,-1.9071213,0.34574974,-0.014660766
1764917120602,-0.47165772,-5.161899,-25.735273,-2.756224,0.56199604,-0.09407325
1764917120655,-0.35194764,-7.9248075,-20.654778,-3.667635,0.89919364,-0.21991149
1764917120710,-0.8690952,-14.944607,-8.810662,-5.082399,0.6805039,-0.4728097
1764917120767,-1.1731589,-18.705898,-3.430891,-5.522222,0.18570304,-0.5644395
1764917120819,-0.088585466,-23.163902,1.8770541,-5.816659,-0.13194689,-0.5925393
1764917120871,-2.0326772,-29.079973,23.199814,-5.7580156,-0.16126843,-0.54244834
1764917120924,0.009576807,-23.386562,33.47094,-5.031086,-0.62796944,-0.5009095
1764917120978,0.6368576,-14.997279,41.47715,-3.9107592,-0.73426,-0.43127087
1764917121033,-1.1324574,-1.388637,45.250412,-1.3585643,-0.43249258,-0.29810223
1764917121085,-1.5275006,0.20829555,43.58405,-0.3042109,-0.07452556,-0.20158553
1764917121137,-1.7717092,-0.5363012,41.32871,0.68661255,-0.080634214,-0.13194689
1764917121190,-0.8714894,-6.241684,32.084698,2.4471262,0.18570304,-0.0012217305
1764917121242,-0.48123455,-9.433155,26.345795,3.1019738,0.27977628,0.002443461
1764917121297,0.37828386,-11.465832,19.893421,3.707952,0.1563815,0.010995574
1764917121351,0.22026655,-12.785037,9.303867,4.0915756,0.18570304,-0.10751228
1764917121404,0.7757214,-12.425907,6.291962,4.130671,-0.25045475,-0.20891592
1764917121456,0.088585466,-12.105083,3.596091,4.1331143,0.26267207,-0.2003638
1764917121508,-0.17717093,-10.263943,-1.3383588,4.0500364,0.15882497,-0.27000242
1764917121561,-0.62967503,-8.748413,-4.4005427,3.9522982,0.03176499,-0.28344148
1764917121616,-1.1133038,-7.7931266,-7.216124,3.7922513,0.14172074,-0.2919936
1764917121669,-2.3175871,-3.383007,-15.387534,3.2082644,0.41905355,-0.12217305
1764917121722,-3.679888,0.1436521,-19.80723,2.7525587,0.17348573,-0.042760566
1764917121775,-3.5817258,3.122039,-21.93328,2.1600194,0.047647487,0.042760566
1764917121830,-3.5553896,4.2880154,-22.285229,0.8588765,0.07086037,0.23823744
1764917121885,-2.9113493,3.763685,-21.016302,0.28710666,-0.073303826,0.31031954
1764917121938,-1.8555063,3.0262709,-19.632454,-0.21746802,-0.14538592,0.3555236
1764917121990,0.4237737,-0.02633622,-18.81603,-1.1496484,-0.11484267,0.37140608
1764917122042,0.7613561,-2.1930888,-19.342756,-1.6481144,0.052534413,0.30543262
1764917122095,-0.11252748,-3.8307228,-21.509508,-2.2382102,0.4728097,0.21502456
1764917122148,1.2186487,-7.551312,-18.47366,-3.707952,0.8197812,-0.16737708
1764917122207,0.8762778,-10.630256,-15.0715,-4.437325,1.4819591,-0.42149702
1764917122259,-0.7015011,-14.30775,-12.160151,-5.077512,0.8588765,-0.83077675
1764917122311,-0.8690952,-25.981876,1.0366893,-6.037792,-0.1160644,-1.0262536
1764917122370,-5.21936,-28.277916,16.757017,-6.00114,0.46670106,-0.91629785
1764917122423,-3.3446999,-18.509573,37.612907,-4.3237042,-0.7611381,-0.7098254
1764917122476,-5.461174,-9.464279,42.523415,-3.150843,-0.70005155,-0.49235737
1764917122529,-5.5497594,-1.6472107,41.718964,-1.9413297,-1.0360274,-0.2761111
1764917122585,-3.5745432,3.8067808,44.467506,0.034208454,-0.5204572,0.07086037
1764917122638,-1.0390835,2.3319526,43.07169,1.0250319,-0.2443461,0.15149458
1764917122691,-0.50996494,-3.8786068,39.118862,2.2907448,-0.04520403,0.09285152
1764917122746,0.4261679,-13.670892,24.540567,3.8704422,0.172264,0.04153884
1764917122802,0.6847417,-16.534357,17.092205,4.346917,0.172264,0.013439035
1764917122855,0.8499416,-17.633295,11.188105,4.609589,-0.06352998,-0.0720821
1764917122908,0.2633622,-17.221493,2.5689783,4.7317624,-0.059864793,-0.10140363
1764917122960,-0.20829555,-16.318878,-0.6727707,4.6951103,0.17959438,-0.09896017
1764917123013,-1.6591818,-14.918271,-3.916914,4.614476,0.48991394,0.002443461
1764917123071,-1.6256629,-11.073183,-12.01171,4.224744,0.21502456,0.015882496
1764917123123,-1.5107412,-8.267179,-15.780184,3.8496728,0.058643065,0.010995574
1764917123175,-1.8555063,-4.1371803,-21.389797,3.3903022,0.204029,0.032986723
1764917123227,-1.1204864,1.3910311,-27.030537,1.9779817,0.07086037,0.032986723
1764917123281,-1.7286136,2.3223755,-26.874914,1.1972959,0.17592919,0.062308256
1764917123335,-1.3910311,2.1906946,-25.558104,0.46303585,0.13927728,0.089186326
1764917123387,-0.3184288,0.18674773,-22.95321,-0.84299403,-0.14660765,0.15149458
1764917123439,-0.93613285,-1.2785037,-22.086512,-1.4257594,-0.07696902,0.14782938
1764917123491,0.12210429,-3.7325604,-20.458454,-2.021964,-0.19914207,0.12705997
1764917123544,-1.4532804,-6.5146227,-18.02355,-3.2143729,0.3921755,0.008552114
1764917123596,-1.5131354,-7.8793178,-15.279796,-3.794695,0.2724459,-0.065973446
1764917123651,-1.7238252,-9.270349,-12.921507,-4.3322563,0.6560693,-0.089186326
1764917123706,-2.5306711,-14.161703,-5.671864,-5.2326717,0.29077184,-0.1881465
1764917123759,-0.62009823,-18.5814,-1.3670892,-5.5161133,-0.18203785,-0.1881465
1764917123811,-1.970428,-21.823149,4.783615,-5.674938,0.14538592,-0.13439035
1764917123864,1.0534488,-23.089682,24.765623,-5.050634,-0.8735373,-0.14294247
1764917123917,-0.39264908,-15.375564,37.308846,-4.1233406,-0.43127087,-0.064751714
1764917123971,1.9967642,-8.793902,39.698257,-2.8930578,-0.8393288,-0.0036651916
1764917124026,0.47405192,-0.4141969,31.318552,-0.8698721,0.019547688,0.06719518
1764917124079,0.035913024,1.3024458,24.41128,-0.24312437,0.18081611,0.089186326
1764917124132,-0.047884032,2.336741,19.091364,0.12583824,0.09040806,0.10262536
1764917124187,-0.6464345,2.1021092,11.722012,0.3885103,-0.087964594,0.105068825
1764917124239,-0.8475474,1.1899183,10.400413,0.37873647,-0.09162979,0.12583824
1764917124291,-0.11252748,0.82599956,9.299079,0.37507126,-0.056199603,0.14049901
1764917124344,2.1332338,0.46208093,8.853758,0.3494149,-0.058643065,0.04153884
1764917124397,2.0925324,0.3854665,9.160215,0.33841935,0.13072516,-0.039095376
1764917124452,2.60968,-0.3184288,9.818622,0.35918877,0.23579398,-0.1600467
1764917124507,-0.15562311,1.1061212,10.007763,0.49113566,0.23701571,-0.30298916
1764917124559,-0.02873042,1.5562311,10.105926,0.5864306,-0.015882496,-0.32375857
1764917124612,-0.80445176,1.9919758,9.555259,0.65484756,0.103847094,-0.27977628
1764917124668,-1.9081788,4.036624,8.248025,0.5925393,0.45937067,-0.16249016
1764917124723,-2.0638018,4.4196963,8.312668,0.5045747,0.6133087,-0.081855945
1764917124777,-1.328782,4.1611223,8.834604,0.44959682,0.38240165,-0.065973446
1764917124830,-1.7980455,3.4045548,10.857705,0.50946164,0.453262,-0.06963864
1764917124882,-2.0566192,3.3734303,10.967838,0.6401868,0.49480084,-0.06841691
1764917124943,-2.755726,3.2680852,11.09473,0.80878556,0.28955013,-0.06352998
1764917124995,-2.6408045,3.490746,10.096349,1.1154399,-0.04642576,-0.02565634
1764917125048,-2.9472623,3.9624038,9.267955,1.2021828,-0.05009095,0.03176499
1764917125104,-3.3207579,4.3981485,7.750031,1.2742649,-0.05497787,0.09407325
1764917125157,-2.681506,4.8362875,6.591237,1.3121386,-0.039095376,0.19058995
1764917125211,-2.966416,5.1475334,7.0605006,1.3023647,0.0842994,0.24312437
1764917125266,-2.384625,5.4683566,6.7564373,1.3720033,0.09407325,0.28710666
1764917125321,-1.9560628,5.470751,5.777209,1.4196508,0.16371189,0.2846632
1764917125374,-2.1859062,5.4779334,4.3718123,1.4294246,0.30543262,0.32620203
1764917125426,-1.2497733,5.149928,3.3782187,1.4306464,0.37995818,0.376293
1764917125479,-0.80924016,5.781997,3.2992098,1.4220943,0.10751228,0.38362336
1764917125531,-0.91219085,6.7324953,2.5474305,1.3976597,0.4288274,0.40194935
1764917125584,-0.2777274,8.710106,0.45489833,1.3084733,0.5558874,0.32253686
1764917125635,0.12689269,9.303867,-0.6607997,1.2620476,-0.12461651,0.21991149
1764917125693,0.038307227,9.598354,-1.757344,1.1691961,0.30298916,0.1966986
1764917125745,0.7350199,9.7563715,-3.5745432,0.9297369,-0.008552114,0.019547688
1764917125796,0.40701428,11.137826,-5.5401826,0.7635816,-0.19914207,-0.1001819
1764917125849,0.20590134,11.113884,-7.225701,0.50823987,0.004886922,-0.15515977
1764917125902,-0.7278373,10.070012,-8.013393,-0.13194689,0.14538592,-0.22113322
1764917125955,-1.5251064,8.537724,-6.1387334,-0.45081854,0.30298916,-0.22113322
1764917126008,-1.9033904,7.855376,-3.845088,-0.66828656,0.096516706,-0.18081611
1764917126063,-1.0893618,7.9870567,1.0749966,-0.8014552,0.14538592,-0.08552113
1764917126115,-1.2042835,8.185776,2.1906946,-0.7171558,0.12950343,-0.07819075
1764917126165,-2.0901382,9.01417,3.5003228,-0.6206391,0.040317107,-0.09040806
1764917126217,-2.9592333,9.5385,3.9983168,-0.48258355,-0.1563815,-0.06963864
1764917126270,-2.870648,9.595961,4.084508,-0.10995574,-0.09407325,0.081855945
1764917126325,-1.757344,10.431537,2.9759927,-0.02443461,-0.112399206,0.10873401
1764917126378,0.7733272,14.156915,1.6089035,0.06719518,-0.1600467,0.06352998
1764917126431,-1.7669208,9.272743,0.8571242,0.04520403,1.2363913,0.23335053
1764917126484,-1.2880806,9.459491,1.1085154,0.04153884,0.86376345,0.2125811
1764917126538,-3.655946,9.672575,2.9520507,0.05009095,0.689056,0.19547687
1764917126593,0.35434186,8.856153,0.7206547,0.16126843,-0.33475417,0.14905111
1764917126646,-0.39983168,10.13705,1.5370775,0.13072516,0.60231316,0.19058995
1764917126698,-0.521936,9.744401,0.9624691,0.1685988,0.013439035,0.112399206
1764917126751,-0.23223756,9.773131,0.581791,0.18081611,0.017104227,0.05375614
1764917126803,-0.4381389,9.703699,0.40462008,0.18081611,0.010995574,0.029321533
1764917126862,-0.7637503,9.758766,0.04309563,0.17592919,-0.008552114,0.009773844
1764917126916,-1.1444284,9.655815,-0.20111294,0.14294247,0.042760566,0.008552114
1764917126968,-1.0845734,9.765948,-0.090979666,0.12705997,0.12217305,0.021991149
1764917127021,-0.90979666,9.878476,-0.6895301,0.07819075,0.040317107,0.034208454
1764917127075,-0.9720459,9.7324295,-0.33039984,0.04886922,0.040317107,0.030543262
1764917127130,-1.0055647,9.794679,-0.22984336,0.034208454,-0.029321533,0.02321288
1764917127183,-1.1971009,9.701305,-0.18435353,0.0012217305,0.008552114,0.03176499
1764917127235,-1.067814,9.940725,-0.34715924,-0.007330383,-0.021991149,0.035430185
1764917127288,-0.842759,9.739613,0,-0.02321288,0.012217305,0.037873644
