t,ax,ay,az,gx,gy,gz
1764917092239,0.80205756,-8.516175,5.0900726,0.28710666,0.05497787,0.16493362
1764917092291,0.89543146,-9.011775,4.9416323,0.2565634,0.002443461,0.03176499
1764917092342,0.521936,-8.305486,5.1355624,0.13316862,0.037873644,-0.047647487
1764917092394,0.1340753,-7.8027034,5.482722,-0.052534413,0.07696902,-0.014660766
1764917092451,0.25617957,-7.615956,5.17387,-0.08552113,0.058643065,0.061086524
1764917092502,0.39983168,-8.53054,4.793192,-0.19058995,0.036651913,0.037873644
1764917092554,1.4915876,-8.9758625,4.6782703,-0.061086524,0.36163223,-0.009773844
1764917092605,1.5011644,-9.038112,5.1906295,-0.089186326,0.5693264,-0.13316862
1764917092656,0.7254431,-7.493851,6.160281,-0.19547687,0.23945917,-0.18203785
1764917092711,1.1731589,-3.8642416,11.417948,0.07574729,0.105068825,0.14172074
1764917092766,-0.45729253,-6.205771,2.2768857,0.6365216,0.30176744,0.29565877
1764917092819,0.35434186,-5.865794,5.1235914,-0.59498274,-0.23701571,0.60231316
1764917092878,-0.90021986,-10.457873,2.705448,-2.5350907,0.2602286,1.0189233
1764917092935,-4.7429137,-9.378088,-0.9864111,-0.7672467,0.7806858,1.0140363
1764917092995,-3.3686419,-8.130709,2.4660277,-1.382999,1.0225884,0.7452556
1764917093051,-2.1332338,-8.90643,2.348712,-2.928488,0.6963864,0.689056
1764917093107,-1.697489,-9.6845455,1.9153614,-1.5589281,0.096516706,0.39706242
1764917093176,-3.2872388,-11.137826,1.7477672,-0.48624873,-0.18325958,-0.047647487
1764917093242,-3.4715924,-8.377312,0.9600749,-0.4007276,-0.1441642,0.07819075
1764917093293,-3.7493198,-7.00304,-0.9935937,-0.71593404,-0.06352998,0.55833083
1764917093347,-3.454833,-12.315774,0.16519992,-1.3695599,-0.029321533,0.5852089
1764917093399,-3.3279405,-7.8984714,0.1364695,-0.27366763,-0.312763,0.08307768
1764917093459,-3.8235402,-9.406818,-0.6943185,-0.16249016,0.1001819,0.36163223
1764917093520,-3.5793316,-9.500193,-1.1252748,-0.09896017,-0.008552114,0.37995818
1764917093579,-3.6703112,-8.157045,-1.8698715,2.3090706,0.062308256,0.34697145
1764917093635,-5.207389,-10.309433,3.3901896,0.8894198,0.15027285,-0.14782938
1764917093690,-2.741361,-10.84334,2.267309,0.021991149,-0.10751228,-0.29932398
1764917093746,-3.41892,-12.595895,0.90500826,0.21013765,0.04520403,-0.59620446
1764917093799,-2.882619,-11.542446,2.3343468,0.3811799,0.012217305,-1.1716396
1764917093855,-0.82121116,-10.479421,2.4875755,0.43371433,-0.10140363,-1.2986995
1764917093911,-1.400608,-11.245565,2.8993783,0.73426,0.010995574,-1.2425
1764917093966,-1.4149733,-11.736377,3.4835634,0.56688297,0.13805555,-1.3267993
1764917094027,-0.7637503,-11.798626,2.006341,0.6365216,0.41416663,-1.3439035
1764917094080,-0.6967127,-11.971008,2.5378537,0.6206391,0.5497787,-1.1178834
1764917094183,-0.25857377,-8.995016,-0.10055647,0.9309586,0.44837508,-0.63529986
1764917094255,-0.12689269,-7.3430166,3.1627405,1.1557571,-0.02443461,-0.97249746
1764917094306,0.12449849,-7.441179,2.9472623,1.1691961,-0.17470746,-1.0396926
1764917094360,1.9728222,-6.7803793,4.5274353,0.93218035,-0.46303585,-0.91507614
1764917094414,1.70946,-6.8785415,3.5649664,1.1044444,-0.32620203,-0.71837753
1764917094468,2.695871,-6.9144545,4.5657425,0.84665924,-0.17592919,-0.56688297
1764917094524,2.920926,-6.495469,4.8817773,0.5729916,-0.03176499,-0.43982297
1764917094578,3.1196449,-6.1770406,5.1906295,0.5815437,0.06841691,-0.37140608
1764917094631,2.9999347,-6.009446,5.142745,0.31520647,-0.015882496,-0.25411993
1764917094684,3.1172507,-5.839458,4.5441947,-0.09773844,0.1160644,-0.2284636
1764917094742,3.2345665,-4.939238,5.2840033,-0.36896262,0.2687807,-0.059864793
1764917094794,2.6312277,-4.0797195,4.9200845,-0.5009095,0.26511553,0.15271631
1764917094848,1.1348516,-3.0909145,3.1244333,-0.89675015,-0.12095132,0.6059783
1764917094904,-0.32561144,-3.1052797,3.976769,-1.1032226,-0.5546656,1.4929546
1764917094964,-2.5210943,-8.406042,-0.82360536,-1.3048081,-0.1600467,2.0781636
1764917095017,-1.922544,-10.84334,0.7541735,-1.4746287,0.15271631,1.7763962
1764917095069,-0.1364695,-14.089877,0.2753332,-3.227812,-0.07819075,1.1325442
1764917095125,-0.33279404,-11.219229,1.0630256,-1.2021828,-0.17104226,0.8051204
1764917095178,0.7015011,-15.318103,0.40222588,-1.9926424,-0.61941737,0.64996064
1764917095233,-0.45729253,-11.15698,1.6160861,-0.874759,-0.30543262,0.5497787
1764917095309,0.19871874,-10.374076,0.079008654,-1.4379768,0.19058995,0.58276546
1764917095366,-0.007182605,-9.773131,0.6631939,-0.8979719,0.042760566,0.75991637
1764917095419,-0.842759,-11.255142,-0.22505496,-0.752586,0.0012217305,0.6768387
1764917095487,-0.6631939,-13.718776,0.023942016,0.15149458,0.018325957,0.06963864
1764917095544,-0.021547815,-14.736312,0.038307227,0.6035349,0.0061086523,-0.31398472
1764917095599,0.038307227,-12.765883,0.32561144,1.2669345,0.012217305,-0.9260717
1764917095652,-0.10534488,-12.0571995,0.78769237,1.8203784,-0.119729586,-1.269378
1764917095707,0.10055647,-12.428301,2.0111294,1.6786577,-0.042760566,-1.4758505
1764917095762,0.6512229,-12.409147,2.243367,1.4477507,-0.09162979,-1.609019
1764917095817,0.36631286,-12.741941,1.4030021,1.0140363,-0.33353242,-1.8802432
1764917095869,1.3575124,-11.250354,1.5370775,1.7886134,-0.15149458,-1.8570304
1764917095933,2.042254,-9.655815,1.1875241,2.085494,0.09407325,-1.7556267
1764917095990,2.4277205,-7.0964136,2.1452048,1.9034561,0.25534168,-1.6126842
1764917096047,2.0350714,-5.303157,2.7485435,1.9669861,0.2846632,-1.4611896
1764917096101,2.6886885,-3.8379054,4.2784386,1.577254,0.19547687,-1.1239921
1764917096192,3.560178,-1.673547,4.8865657,0.98837996,0.059864793,-0.6243043
1764917096247,3.976769,-0.7110779,5.494693,0.8014552,0.21991149,-0.23335053
1764917096329,4.027047,-1.0031705,5.657499,0.119729586,0.07086037,0.27977628
1764917096382,3.5865142,-2.777274,4.8985367,-0.77213365,0.009773844,0.50579643
1764917096434,3.6391866,-2.2170308,4.268862,-0.956615,0.172264,0.74281216
1764917096494,2.6791117,-3.6272156,3.7804444,-1.5479325,-0.10629055,1.0861185
1764917096553,0.18435353,-3.881001,3.655946,-1.8350391,-0.22235495,1.5784758
1764917096614,0.23463176,-7.896077,1.2521675,-2.0818288,-0.6988298,2.2308798
1764917096673,0.34955344,-12.196063,0.49320555,-2.140472,-0.5729916,2.3493876
1764917096730,0.059855044,-15.306131,1.1228806,-2.7269025,-0.04886922,2.4312437
1764917096783,1.8722657,-15.205575,-0.36631286,-1.7324139,0.28221974,1.7641789
1764917096836,2.3319526,-12.35887,1.4269443,-1.3048081,0.25167647,1.1203269
1764917096895,0.5722142,-10.34774,1.3934253,-1.0506883,0.10629055,0.8246681
1764917096954,-1.3862427,-10.292673,0.6871359,-1.4391985,0.20525073,0.88208944
1764917097013,-0.7565677,-12.401965,-0.18914193,-1.0763446,0.14294247,0.9443977
1764917097069,-0.20590134,-13.493721,-0.9935937,-0.35185838,0.062308256,0.64996064
1764917097161,-0.18435353,-12.725182,-0.92655605,0.64996064,-0.030543262,-0.5571091
1764917097212,-0.90740246,-11.724405,-0.19871874,1.3365731,0.009773844,-0.90285885
1764917097264,-0.29209262,-12.346898,-0.15562311,1.4856243,-0.040317107,-1.0238101
1764917097316,-0.3184288,-11.585542,0.81163436,1.7983873,-0.09407325,-1.237613
1764917097374,0.32561144,-13.041217,-0.06703765,1.5528195,-0.11362094,-1.3390167
1764917097428,0.17956513,-11.640609,1.6089035,1.4147639,-0.0012217305,-1.3756685
1764917097481,0.5315128,-10.850522,2.3894134,1.5259414,0.035430185,-1.3585643
1764917097538,1.5658079,-9.368511,2.3894134,1.0604621,-0.081855945,-1.1447614
1764917097596,1.922544,-9.617508,2.566584,1.1142182,-0.18692477,-1.1068878
1764917097653,1.9153614,-8.058883,1.4556746,2.298075,-0.23701571,-1.2327261
1764917097711,1.7238252,-7.608773,3.2992098,1.6016886,-0.2321288,-1.3133603
1764917097766,2.6479871,-4.699818,3.7134068,1.5625933,0.059864793,-1.3292428
1764917097819,3.787627,-2.779668,4.465186,0.9138544,0.028099801,-0.8784242
1764917097878,3.3518825,-2.3942018,4.831499,0.49357912,0.095294975,-0.45814893
1764917097935,3.0478187,-1.9967642,4.465186,0.1282817,0.112399206,-0.16737708
1764917097989,2.8323407,-1.2162545,4.984728,-0.32253686,0.09407325,0.21380283
1764917098043,2.4708161,-1.8722657,3.9217024,-0.74036866,0.1160644,0.70738196
1764917098100,1.8243817,-3.9240966,3.1316159,-1.3304645,0.1563815,1.1227703
1764917098176,1.067814,-7.821857,3.41892,-2.1661282,0.09896017,1.6261233
1764917098228,0.059855044,-9.696517,2.1859062,-2.1966715,-0.029321533,1.7788396
1764917098280,0.5410896,-13.587094,1.9177556,-2.5240953,0.105068825,1.5259414
1764917098332,0.80924016,-14.144943,3.157952,-2.085494,0.42760566,1.187522
1764917098385,1.970428,-15.521609,0.46686932,-1.4306464,0.4642576,0.36774087
1764917098445,2.3080103,-10.723629,1.3934253,-1.6615535,0.09896017,0.08552113
1764917098501,3.442862,-10.599131,1.1971009,-1.6481144,-0.31887165,0.49357912
1764917098555,1.6687586,-8.578424,2.1068976,-0.45937067,-0.056199603,0.5705481
1764917098611,1.0749966,-11.046846,0.39025488,-0.829555,-0.018325957,0.5839872
1764917098665,1.4053963,-11.609484,-0.50517654,-0.63407815,-0.06352998,0.41538838
1764917098721,1.2425907,-13.148955,-0.7015011,-0.28344148,-0.007330383,0.10751228
1764917098781,1.9656396,-12.172121,-0.81163436,0.44959682,-0.034208454,-0.36163223
1764917098834,1.9991584,-11.829751,-0.47884035,1.0848967,-0.018325957,-0.5644395
1764917098888,2.4301147,-12.277467,0.25378537,1.2950343,-0.002443461,-0.9053023
1764917098943,2.0159178,-12.445061,1.2425907,1.6481144,0.13683382,-1.1410962
1764917098999,3.110068,-11.468226,1.6256629,1.5296066,0.09896017,-1.073901
1764917099053,2.1739352,-10.869676,2.9616275,1.9156734,-0.007330383,-1.2412782
1764917099107,2.0111294,-12.006922,2.0326772,0.9737192,-0.056199603,-1.1557571
1764917099202,2.789245,-9.785102,2.2505496,1.7030923,-0.029321533,-0.92485
1764917099253,3.4213142,-8.595184,3.6870706,1.9022343,-0.07452556,-1.2974777
1764917099307,2.542642,-6.2512608,3.2632968,2.1197023,0.21380283,-1.287704
1764917099365,3.4691982,-4.173094,4.465186,1.7373008,0.2125811,-1.1655309
1764917099426,3.2968156,-3.3207579,4.247314,1.3011429,0.16126843,-0.87964594
1764917099483,3.7445314,-1.9800048,4.656722,0.56199604,0.10262536,-0.63285637
1764917099535,3.5649664,-0.60812724,5.161899,0.41783184,0.081855945,-0.37018433
1764917099586,3.6703112,-1.079785,4.8578353,-0.19792034,0.073303826,0.11728613
1764917099637,3.3997664,-0.90261406,5.0781016,-0.37873647,0.103847094,0.32742378
1764917099689,2.9472623,-1.6543933,4.501099,-0.8576548,0.16249016,0.766025
1764917099746,0.7469909,-0.25617957,2.9735985,-1.2144,-0.25534168,1.4391985
1764917099801,0.60333884,-3.5218706,2.6671407,-1.3500122,-0.58276546,1.7055358
1764917099854,0.78050977,-8.916007,2.4827871,-2.4226916,-0.49602258,2.3151793
1764917099910,1.0989386,-12.811374,1.7932571,-2.4092526,0.09896017,2.5986207
1764917099967,0.5602432,-14.743494,2.7341783,-2.2919664,0.3726278,2.1001546
1764917100034,1.6160861,-15.217546,3.5936968,-1.78617,0.5180137,1.2901474
1764917100120,2.2888567,-11.046846,4.4603977,-1.500285,0.23701571,0.7098254
1764917100214,0.2873042,-11.492168,0.60333884,-1.5308284,0.2284636,0.69027776
1764917100265,1.6807296,-12.423512,-0.39264908,-1.2009611,0.08674286,0.79412484
1764917100317,0.37588966,-12.397177,-0.5506664,-0.39584067,0.089186326,0.5204572
1764917100368,0.39264908,-12.897565,-0.6847417,-0.12950343,0.09773844,-0.17348573
1764917100420,0.019153614,-12.294226,-0.20829555,0.3652974,0.07941248,-0.42149702
1764917100474,0.4285621,-12.935872,0.5243302,1.2180653,-0.07574729,-0.816116
1764917100531,0.94092125,-12.777855,1.0055647,1.9730947,-0.19058995,-1.2620476
1764917100587,1.4413095,-12.418724,1.5275006,2.1380284,-0.25045475,-1.4538593
1764917100642,1.6256629,-11.21444,2.5306711,2.1148155,-0.2443461,-1.7617353
1764917100695,2.3582888,-10.299856,2.5115175,1.5027285,-0.22602014,-1.6481144
1764917100750,3.1627405,-10.163386,2.3774424,1.2339478,-0.0061086523,-1.3939945
1764917100807,3.2920272,-9.828198,2.6312277,1.3842206,0.0012217305,-1.287704
1764917100861,2.6048915,-8.762778,2.7605145,1.6383406,0.3359759,-1.3585643
1764917100916,2.4013844,-6.191406,3.8187518,1.6261233,0.30787608,-1.2925909
1764917100974,3.0502129,-4.510676,3.4931402,1.428203,0.24801129,-1.174083
1764917101028,2.7748797,-3.667917,3.9097314,1.2205088,0.2406809,-0.956615
1764917101082,3.8187518,-2.9113493,4.7261543,0.7049385,0.09896017,-0.752586
1764917101136,4.3239284,-2.4492683,5.4061074,0.30176744,0.12461651,-0.43982297
1764917101218,4.4101195,-2.0446482,5.671864,-0.09162979,0.015882496,0.14538592
1764917101274,3.9671922,-2.327164,4.5513773,-0.5216789,0.12461651,0.4654793
1764917101326,3.6391866,-2.2409728,4.795586,-0.79290307,0.24312437,0.6805039
1764917101378,1.9967642,-2.621651,4.6519337,-1.1679744,-0.017104227,1.2156218
1764917101433,0.5554548,-3.8762126,3.9264908,-1.3255776,-0.28955013,1.7776178
1764917101493,1.043872,-6.8426285,3.7852328,-1.6847663,-0.38973203,2.090381
1764917101547,0.5626374,-10.129868,2.4899697,-2.3041837,-0.28221974,2.453235
1764917101601,0.5363012,-9.691729,2.3415294,-2.2137756,0.16249016,2.2174408
1764917101653,1.0726024,-14.446613,1.8267759,-1.6884315,0.15515977,2.1245892
1764917101707,-0.7661445,-13.666103,-0.038307227,-1.881465,0.35430184,1.577254
1764917101762,1.6807296,-13.381193,1.4532804,-1.4343116,0.10751228,0.9224065
1764917101819,-0.7326257,-12.813767,1.1779473,-1.4501941,0.11484267,0.5375614
1764917101882,-0.7422025,-11.956643,0.33518824,-1.4062119,0.3005457,0.32620203
1764917101943,0.5506664,-11.054029,-0.12210429,-1.2266175,0.31031954,0.376293
1764917101998,-0.045489833,-11.87524,-1.0127473,-0.6780604,0.12339478,0.15027285
1764917102050,-0.19153613,-11.68131,-0.5506664,0.043982297,0.065973446,-0.043982297
1764917102103,0.21068975,-11.884817,-0.22744916,0.77579886,-0.07696902,-0.30787608
1764917102159,0.22026655,-13.594277,-0.08140286,1.4159856,-0.21624629,-0.50823987
1764917102228,1.1923125,-13.52724,0.22026655,1.518611,-0.1563815,-0.893085
1764917102299,0.45489833,-12.861651,0.581791,1.6933185,-0.06963864,-1.4184291
1764917102351,-0.545878,-12.686874,0.7469909,1.926669,0.010995574,-1.518611
1764917102403,0.20350714,-10.754754,1.4867992,1.409877,-0.10751228,-1.7568485
1764917102465,1.2617443,-8.935161,2.7269957,0.8943067,0.013439035,-1.7373008
1764917102521,1.6041151,-8.039729,1.3192052,2.003638,0.15027285,-1.5076154
1764917102581,2.813187,-7.4363904,2.7724855,2.3860397,0.43860126,-1.2754866
1764917102641,2.693477,-5.4779334,3.3135753,1.8777997,0.46792278,-1.1618657
1764917102699,2.645593,-3.2082303,5.590461,1.491733,0.16737708,-1.0555751
1764917102752,3.1148565,-2.2697031,4.807557,1.6151277,-0.02687807,-0.89919364
1764917102807,3.2680852,-2.0590134,5.1020436,0.9761627,-0.111177474,-0.52656585
1764917102870,3.8139634,-1.9201498,4.9176903,0.061086524,-0.07819075,-0.1563815
1764917102922,4.039018,-1.328782,4.84347,-0.37873647,0.07086037,0.28344148
1764917102981,2.8514943,-0.9624691,4.3287168,-0.80756384,0.29565877,0.75502944
1764917103039,2.3894134,-1.9632454,4.050989,-1.4831808,0.15271631,1.1068878
1764917103154,0.04309563,-8.135497,3.2082303,-2.3090706,-0.16737708,2.144137
1764917103220,-0.56982,-12.117055,2.6886885,-2.5033257,0.11362094,2.2272146
1764917103271,-0.3878607,-12.969391,2.1619642,-2.3225098,0.15515977,1.9401081
1764917103323,0.79726917,-15.119384,1.934515,-2.6633725,-0.04520403,1.3390167
1764917103381,0.34715924,-13.448231,1.2785037,-1.5589281,0.05131268,1.065349
1764917103435,0.521936,-12.722788,0.2825158,-1.8985692,0.26267207,0.8527679
1764917103489,0.49320555,-11.77229,0.5722142,-2.035403,0.13927728,0.68661255
1764917103545,-0.81163436,-10.761936,-0.5410896,-1.1777482,0.10995574,0.61575216
1764917103603,-0.48602295,-12.100295,-0.3878607,-0.7147123,0.05497787,0.71837753
1764917103664,-0.8643068,-13.441049,-0.18195933,-0.039095376,-0.11362094,0.21013765
1764917103725,-0.02873042,-13.364434,-0.30645782,0.27122417,-0.12339478,-0.14782938
1764917103786,0.35673606,-13.426683,-0.48602295,0.7440339,-0.204029,-0.5864306
1764917103842,0.11492168,-13.6732855,-0.18674773,1.282817,-0.2565634,-1.1093313
1764917103895,0.6823475,-13.718776,0.17238252,1.5723672,-0.13316862,-1.2815952
1764917103949,0.05746084,-13.637373,-0.4261679,1.72264,0.017104227,-1.5809193
1764917104005,-0.6919243,-12.629414,0.074220255,1.9950858,0.02076942,-1.7690657
1764917104058,0.1364695,-9.801862,0.78529817,2.502104,-0.1160644,-1.7739527
1764917104110,0.7757214,-9.31105,2.2218192,2.2272146,-0.05131268,-1.4880677
1764917104205,1.8076223,-7.065289,3.8546648,2.2638667,-0.204029,-1.4257594
1764917104258,1.4628572,-6.253655,3.7732618,2.2687535,-0.2321288,-1.486846
1764917104310,2.554613,-3.608062,4.0198646,1.5931365,-0.4092797,-1.4611896
1764917104367,3.1316159,-1.7477672,3.6248214,1.0433578,-0.48258355,-1.0421361
1764917104421,4.1922474,-0.22505496,4.1180267,0.7330383,-0.16126843,-0.7281514
1764917104477,4.3143516,0.81642276,4.1491513,0.25900686,0.06841691,-0.04886922
1764917104529,3.3542767,0.46926352,4.618415,-0.23457226,0.24556783,0.5522222
1764917104585,2.813187,-0.32800564,3.6966474,-0.5864306,0.29077184,0.8038987
1764917104638,2.3175871,-1.3694834,3.490746,-1.3988814,0.25900686,1.0360274
1764917104694,2.078167,-4.4603977,2.8514943,-1.817935,0.3652974,1.4966198
1764917104749,1.8842367,-8.911219,5.073313,-2.175902,0.8197812,2.0011945
1764917104805,1.0079589,-9.92636,4.074931,-1.9865338,0.5534439,2.017077
1764917104861,0.19632454,-14.568717,3.9240966,-2.316401,0.058643065,1.5919148
1764917104915,1.70946,-16.615759,4.474763,-1.9022343,-0.21624629,0.7819075
1764917104972,2.27928,-12.394782,2.2649148,0.05497787,-0.48991394,0.2565634
1764917105031,4.4364557,-11.44189,5.473145,-0.89919364,-0.48747048,0.15027285
1764917105088,4.7764325,-9.160215,4.1371803,-1.5234979,-0.24801129,0.103847094
1764917105142,2.2840683,-8.863335,2.2242134,-1.4306464,0.2846632,0.5742133
1764917105234,2.4516625,-11.801021,3.1387985,-0.17592919,0.04153884,0.7257079
1764917105298,3.0693667,-12.799402,2.3223755,0.14294247,-0.14172074,0.12217305
1764917105349,2.942474,-10.206482,2.2936451,0.689056,-0.032986723,-0.20525073
1764917105402,3.2225955,-10.158598,2.813187,1.4501941,0.09162979,-0.22113322
1764917105455,2.315193,-11.908759,4.570531,0.8368854,0.10629055,-0.14905111
1764917105513,2.6120741,-13.48175,4.0054994,0.86742866,0.13072516,-0.29932398
1764917105569,1.0414777,-13.563152,4.1802764,0.9639453,0.15271631,-0.35918877
1764917105632,0.533907,-13.81215,3.6511576,0.1001819,-0.14049901,-0.66706485
1764917105685,0.6919243,-11.628637,2.681506,1.4648548,-0.3213151,-1.1801916
1764917105742,-0.8451532,-10.364499,1.532289,2.289523,-0.26267207,-1.3048081
1764917105797,-0.92176765,-8.604761,2.2768857,2.4165828,-0.36285394,-1.5357152
1764917105855,0.81881696,-5.81791,2.858677,2.1465805,-0.26145032,-1.6285667
1764917105914,2.0829554,-3.2632968,4.225766,1.8435913,-0.25411993,-1.4538593
1764917105967,3.169923,-2.1643584,4.4077253,1.3060299,-0.15393804,-0.95417154
1764917106022,4.003105,-1.0103531,4.6950297,0.61941737,0.05009095,-0.5326745
1764917106077,3.4859576,-0.50278234,4.381389,0.105068825,0.16249016,-0.05497787
1764917106135,3.2321723,-0.2633622,4.2640734,-0.56688297,0.19058995,0.44959682
1764917106233,0.7374141,-2.7150247,4.7907977,-1.3182472,0.516792,1.4025466
1764917106334,-2.657564,-11.365275,4.2904096,-2.4410176,0.18203785,1.4489723
1764917106386,-0.61770403,-13.474567,3.9983168,-2.542421,-0.07086037,0.75136423
1764917106438,3.6128504,-15.617377,5.542577,-1.8228219,-0.3494149,-0.10629055
1764917106500,7.8649526,-16.543934,7.2831616,-0.09285152,-0.4801401,-0.16982053
1764917106555,8.080431,-8.111555,2.621651,-0.39461896,-0.62796944,-0.35308012
1764917106618,6.232107,-7.1059904,2.183512,-2.2382102,-0.65484756,-0.5180137
1764917106678,3.8139634,-9.334992,1.7118542,-2.4923303,-0.4361578,0.21991149
1764917106732,3.169923,-6.5625067,2.3630772,-0.5338962,-0.23945917,0.5766568
1764917106786,4.4316673,-10.129868,1.2090719,-0.15760323,-0.22357668,0.5693264
1764917106840,5.2744265,-10.757148,1.3742718,0.09040806,-0.056199603,0.312763
1764917106898,5.379771,-11.032481,0.79008657,-0.4202753,0.0061086523,-0.008552114
1764917106953,4.88896,-10.536881,1.508347,0.45204028,0.16249016,-0.17348573
1764917107007,4.24492,-13.192051,1.5705963,0.04642576,0.376293,-0.2773328
1764917107063,4.841076,-8.492233,2.6982653,0.4886922,0.6988298,-0.21746802
1764917107120,3.6008794,-10.163386,3.3997664,1.187522,0.7733554,-0.31520647
1764917107173,3.6176388,-9.490616,4.5777135,0.7318166,0.6585127,-0.4447099
1764917107282,3.1962593,-9.876082,2.5115175,1.0580186,0.30909783,-0.5314528
1764917107335,3.5458126,-9.131485,3.9671922,1.3023647,0.22968534,-0.6010914
1764917107387,2.896984,-8.6813755,4.1491513,1.5711454,0.17592919,-0.47158796
1764917107441,3.2034419,-7.750031,2.7940333,2.008525,0.02687807,-0.7134906
1764917107493,3.3614593,-6.801927,4.1706996,1.772731,0.04520403,-0.83077675
1764917107545,3.514688,-4.644751,3.952827,1.3805555,0.0036651916,-0.88453287
1764917107604,3.406949,-2.7222073,5.647922,1.1227703,0.058643065,-0.77946407
1764917107664,3.7541082,-1.1300632,5.7843914,0.74281216,0.081855945,-0.54611355
1764917107721,3.655946,-1.0893618,5.4659624,0.20769419,0.02321288,-0.1001819
1764917107776,3.8259344,-0.51954174,4.3023806,-0.44593164,-0.13927728,0.3921755
1764917107829,3.2848446,-0.05267244,4.6806645,-0.9126327,-0.4605924,1.3622295
1764917107903,-1.5586253,-6.7971387,3.098097,-1.5980235,0.23335053,2.0231857
1764917107953,-0.7278373,-10.457873,4.292804,-2.2198844,0.35430184,1.6517797
1764917108004,1.3215994,-14.901511,3.7181952,-1.8240436,-0.12583824,0.58276546
1764917108055,4.3119574,-14.401123,5.0062757,-1.070236,-0.2443461,-0.22968534
1764917108105,7.680599,-12.136209,5.674258,-0.015882496,-0.6621779,-0.63285637
1764917108157,6.7947445,-10.431537,6.679823,-0.3359759,-0.58032197,-0.89919364
1764917108241,4.4603977,-4.7764325,3.9911342,-1.6603317,-0.2565634,0.3286455
1764917108293,4.060566,-7.608773,2.5187001,-1.9046779,-0.43860126,0.53878313
1764917108345,4.999093,-7.9272017,1.6232687,-0.50823987,-0.4007276,0.752586
1764917108398,5.365406,-11.793838,0.93852705,-0.82833326,-0.23090707,0.5644395
1764917108451,5.506664,-10.905589,0.9696517,-0.19181168,-0.032986723,0.20280726
1764917108509,5.559336,-7.9463553,1.5658079,0.28710666,0.204029,-0.12583824
1764917108567,4.7070007,-9.624691,2.4875755,1.0433578,0.5363397,-0.052534413
1764917108620,4.5058875,-9.68694,4.321534,0.43860126,0.8258898,0.019547688
1764917108675,4.8961425,-9.560047,3.323152,0.8698721,0.64751714,-0.02565634
1764917108729,4.173094,-11.058818,3.6296098,0.8552113,0.3494149,-0.15393804
1764917108787,3.8379054,-10.43872,3.4763808,1.0506883,0.2406809,-0.25900686
1764917108845,3.9097314,-11.633426,2.2577322,1.065349,-0.095294975,-0.40194935
1764917108898,3.4045548,-10.484209,2.9520507,1.105666,-0.103847094,-0.52778757
1764917108951,2.8874073,-8.4587145,5.7149596,2.2088888,-0.12339478,-0.59742624
1764917109010,2.111686,-7.0844426,2.2170308,2.0366247,-0.30787608,-0.8588765
1764917109064,3.0502129,-4.745308,3.5458126,1.8362609,-0.13561209,-1.078788
1764917109117,3.550601,-3.4141316,4.0940847,1.3316863,-0.30665436,-0.8332202
1764917109169,3.8474822,-2.099715,3.7660792,0.75136423,-0.172264,-0.4288274
1764917109234,4.256891,-0.9624691,3.620033,0.02687807,0.061086524,-0.080634214
1764917109287,4.0940847,-1.0271125,3.2321723,-0.59864795,0.3042109,0.49846604
1764917109339,2.078167,-1.4221559,2.8802247,-0.956615,0.58032197,1.1129965
1764917109390,0.009576807,-4.3861775,4.522647,-1.3671165,0.8686504,1.600467
1764917109441,0.16519992,-7.3406224,4.039018,-1.817935,0.75747293,1.2070698
1764917109492,0.7493851,-11.326968,5.4683566,-1.3206906,0.11728613,0.37873647
1764917109547,3.7732618,-12.109872,2.492364,-1.736079,-0.49357912,-0.20647246
1764917109600,4.0414124,-12.751518,4.6112323,-0.956615,-0.40439278,-0.7244862
1764917109655,6.205771,-11.295844,10.072407,-0.58276546,-0.59620446,-0.4642576
1764917109713,9.368511,-10.4171715,7.6470804,0.47891834,-0.80878556,-0.47036624
1764917109767,8.14268,-5.3965306,4.1180267,-2.2198844,-0.8222246,-0.034208454
1764917109822,3.1675289,-6.885724,0.12449849,-1.5161675,-0.43860126,1.0421361
1764917109877,3.6391866,-8.26239,3.6272156,-0.7476991,-0.6365216,0.95294976
1764917109933,3.4213142,-9.998186,1.4508862,-0.009773844,-0.49113566,0.9138544
1764917109986,5.0421886,-10.503363,1.1707647,-0.009773844,-0.36651915,0.79901177
1764917110041,5.949591,-11.973403,0.19393034,-0.019547688,-0.24678956,0.096516706
1764917110098,4.0677485,-9.622296,0.34476504,0.18570304,0.05131268,-0.26511553
1764917110155,4.6279917,-7.795521,2.4899697,0.3115413,0.32375857,-0.057421334
1764917110292,4.7309427,-12.246342,2.980781,0.5009095,0.18570304,0.05131268
1764917110374,3.5697548,-12.9167185,3.1268275,-0.43127087,-0.040317107,-0.10629055
1764917110426,1.9033904,-12.3038025,1.1540052,1.2669345,-0.10995574,-0.5119051
1764917110479,2.267309,-7.908048,0.50996494,1.2596041,0.20525073,-1.0543534
1764917110543,2.4181437,-8.561666,0.90500826,1.1887437,-0.14049901,-1.5418239
1764917110598,2.9831753,-7.177817,2.4157495,1.3231341,0.19914207,-1.4062119
1764917110653,2.956839,-4.3023806,2.9352913,1.5063937,0.13194689,-1.2046263
1764917110707,2.5881321,-3.5003228,2.3463178,0.81489426,-0.034208454,-0.6743952
1764917110762,3.289633,-2.054225,2.0925324,0.073303826,0.105068825,-0.17104226
1764917110819,3.1866825,-2.099715,2.303222,-0.39095375,0.20158553,0.50701815
1764917110875,1.9871874,-2.348712,2.27928,-0.15393804,0.119729586,1.1178834
1764917110929,-0.866701,-5.056554,0.90500826,0.7635816,0.47525316,1.7971655
1764917110981,1.7741034,-13.567941,2.72939,-1.0665708,0.8564331,1.269378
1764917111040,4.9655743,-16.397888,4.295198,-1.6261233,0.5216789,-0.32620203
1764917111097,8.1642275,-13.668497,9.31105,-1.1924089,0.36651915,-0.8136725
1764917111187,4.9679685,-7.66384,1.2569559,-1.7666223,-0.62796944,0.42394048
1764917111238,3.3207579,-6.10282,4.596867,-2.0341814,-0.7440339,0.4007276
1764917111293,3.6415808,-7.819463,0.79966336,-1.5613716,-0.5338962,0.46181414
1764917111346,5.2528787,-9.773131,-0.34955344,-1.1044444,-0.29932398,0.7770206
1764917111405,5.3079453,-10.94629,-1.7549498,-0.73548174,-0.07574729,0.37507126
1764917111469,4.6591167,-11.049241,-0.5530606,-0.5216789,0.31642818,-0.05375614
1764917111522,4.5298295,-8.935161,0.4381389,0.49968776,0.4642576,-0.080634214
1764917111582,3.8139634,-9.591172,1.4460979,0.39706242,0.19425514,-0.0720821
1764917111636,3.4979286,-10.785878,2.1332338,1.1716396,0.029321533,-0.029321533
1764917111693,4.876989,-13.752295,0.4141969,1.2705997,0.15393804,-0.36896262
1764917111748,4.8985367,-11.080365,2.8538885,1.6175711,0.24312437,-0.5888741
1764917111803,4.5657425,-11.504139,0.9720459,1.0152581,0.23701571,-0.91751957
1764917111863,2.9472623,-10.134656,-0.12210429,1.174083,0.4092797,-1.1203269
1764917111921,3.8738184,-8.358158,1.1228806,1.4746287,0.4092797,-1.1936307
1764917111984,2.7509377,-5.518635,1.6903064,1.5076154,0.36896262,-1.0812315
1764917112043,3.2249897,-4.6016555,2.8993783,1.0348058,0.40561453,-0.8723156
1764917112096,4.060566,-3.4644098,3.739743,0.6450737,0.31642818,-0.63407815
1764917112214,3.6415808,-3.1986535,4.0438066,-0.14538592,0.21013765,0.14660765
1764917112291,3.6631286,-4.213795,4.039018,-0.45570546,0.25167647,0.68294734
1764917112343,3.1196449,-4.546589,3.5051112,-0.5876524,0.19303341,1.0274754
1764917112396,2.420538,-5.3438582,3.7086184,-0.77213365,0.21868975,1.2864822
1764917112450,2.1523874,-7.702147,2.5833437,-1.4709635,0.22235495,1.3219124
1764917112507,2.1930888,-8.303091,3.2848446,-1.4990633,0.31031954,1.359786
1764917112566,2.171541,-11.401189,3.9911342,-1.6982054,0.19303341,1.5234979
1764917112626,0.9744401,-10.929531,2.858677,-1.0067059,0.037873644,1.3475688
1764917112686,0.91458505,-10.874464,3.514688,-1.0421361,-0.12950343,1.423316
1764917112747,0.39504328,-10.388441,1.5825673,-0.56688297,-0.21380283,1.3976597
1764917112800,-0.48841715,-11.951855,2.56419,-1.0091494,-0.21380283,1.3487904
1764917112856,-0.9983821,-10.644621,1.8674773,-0.5925393,-0.20647246,1.2669345
1764917112909,-2.27928,-10.532093,0.44532153,-0.014660766,-0.1441642,1.1777482
1764917112969,-2.408567,-10.69011,1.30484,-0.22235495,-0.1881465,1.0042624
1764917113029,-2.743755,-9.607931,1.4772224,-0.2968805,-0.2321288,0.8857546
1764917113086,-3.4213142,-8.980651,1.115698,-0.1881465,-0.3005457,1.0641272
1764917113140,-4.331111,-9.437943,0.91937345,-0.18692477,-0.41172317,1.102001
1764917113247,-6.691794,-13.175292,5.2265425,1.187522,-0.82833326,-0.5326745
1764917113326,-3.679888,-14.504074,2.717419,-0.47403142,-1.9193386,-2.284636
1764917113378,-1.5658079,-15.143326,-0.89543146,-1.3158038,-1.9853121,-3.2571335
1764917113456,0.93134445,-12.095507,-2.6886885,0.7696902,-0.5705481,-3.8423424
1764917113509,1.2737153,-7.321469,0.44771573,3.0592132,0.35063666,-2.8906143
1764917113562,1.7884687,-7.050924,1.1204864,4.3627996,0.26633725,-2.6597073
1764917113615,2.006341,-4.1706996,3.371036,6.4922757,0.5839872,-2.234545
1764917113671,3.1268275,-0.46208093,5.41329,6.467841,0.39584067,-1.8338175
1764917113727,3.1268275,2.4372973,6.0836663,3.9999456,0.344528,-1.3548992
1764917113781,3.2441432,2.8874073,7.00304,2.379931,0.50701815,-0.82344633
1764917113835,2.8395233,4.6591167,6.8522053,1.9779817,0.5338962,-0.2919936
1764917113893,2.1811178,4.1012673,7.797915,1.0421361,0.52656585,0.23945917
1764917113951,2.542642,3.9217024,7.9966335,0.45448375,0.42149702,0.3726278
1764917114004,2.765303,3.277662,8.279149,0.24923302,0.18936823,0.22113322
1764917114062,2.9640217,4.0462008,9.169792,-0.23335053,-0.08674286,0.16615535
1764917114119,3.4715924,2.1499932,7.1371155,-0.91629785,-0.24312437,0.087964594
1764917114177,3.2441432,3.25372,5.5377884,-4.5277333,0.008552114,0.18570304
1764917114308,1.7381904,-2.9616275,9.143456,0.5375614,0.51068336,0.1441642
1764917114362,8.291121,2.1523874,21.394587,0.9810496,0.2284636,0.40317106
1764917114414,2.2050598,1.2378023,8.690952,0.81122905,-0.6426302,-0.44226643
1764917114469,3.596091,0.49799395,8.075643,0.9334021,-0.20891592,-0.47036624
1764917114523,4.19943,-0.32800564,8.959103,0.36774087,-0.25167647,-0.30909783
1764917114577,3.9001546,0.9696517,8.8777,0.3567453,-0.118507855,-0.2773328
1764917114635,3.7565024,1.3742718,8.710106,0.33108896,-0.12217305,-0.20891592
1764917114694,4.2281604,1.043872,8.303091,0.22724187,-0.11362094,-0.20280726
1764917114748,4.501099,1.0582372,8.50181,0.16249016,-0.16126843,-0.22235495
1764917114806,4.5418005,1.2258313,8.4108305,0.087964594,-0.1685988,-0.16737708
1764917114859,4.3861775,1.3982137,8.432379,0.037873644,-0.13194689,-0.0842994
1764917114918,4.297592,1.7118542,8.671799,0.1160644,-0.032986723,-0.061086524
1764917114978,4.489128,1.7645266,8.360553,0.13194689,0.037873644,-0.05131268
1764917115038,4.441244,2.1140802,8.310274,0.10995574,0.080634214,-0.087964594
1764917115097,4.4220905,1.7357962,8.408437,0.057421334,0.065973446,-0.103847094
1764917115157,4.232949,1.8339585,8.492233,-0.02443461,0.015882496,-0.056199603
1764917115289,4.285621,1.4293385,8.573636,-0.05131268,-0.04520403,0.047647487
1764917115343,4.3263226,1.436521,8.480263,-0.02321288,-0.030543262,0.03176499
1764917115397,4.2401314,1.532289,8.604761,0.012217305,0.0036651916,0.017104227
1764917115453,4.307169,1.5346833,8.389283,-0.040317107,0.007330383,0.02443461
1764917115507,4.2161894,1.4389153,8.5473,-0.017104227,-0.002443461,0.036651913
1764917115561,4.3957543,1.5179238,8.561666,0,0.0036651916,0.029321533
1764917115618,4.3167458,1.3910311,8.492233,0.015882496,-0.013439035,0.02076942
1764917115672,4.3119574,1.3718776,8.655039,-0.02565634,0.0012217305,0.004886922
1764917115727,4.211401,1.4460979,8.494628,0.02321288,0.012217305,-0.010995574
1764917115781,4.27365,1.4413095,8.523358,0.012217305,0.012217305,-0.004886922
1764917115837,4.2521024,1.532289,8.494628,0.02443461,0.015882496,0.0036651916
1764917115891,4.3622355,1.5251064,8.564059,0.02687807,0.002443461,-0.0036651916
1764917115946,4.283227,1.4748282,8.485051,-0.004886922,0.0036651916,-0.0061086523
1764917116001,4.3047748,1.5059528,8.451532,-0.008552114,-0.007330383,-0.004886922
1764917116058,4.3047748,1.4413095,8.552089,-0.009773844,-0.014660766,-0.0036651916
1764917116113,4.232949,1.4676456,8.504205,-0.0012217305,-0.008552114,-0.0061086523
1764917116167,4.280833,1.42455,8.537724,0.007330383,-0.007330383,-0.013439035
1764917116225,4.2664676,1.4269443,8.4826565,0.012217305,0.0012217305,-0.02076942
1764917116366,4.3502645,1.5873557,8.511387,0.02076942,0.0036651916,-0.007330383
1764917116423,4.3239284,1.4891934,8.535329,0.02076942,0.014660766,-0.014660766
1764917116484,4.321534,1.4939818,8.453926,0.012217305,0.007330383,-0.018325957
1764917116543,4.256891,1.4987702,8.516175,0.0012217305,0.012217305,-0.02443461
1764917116601,4.297592,1.5035586,8.444349,-0.0061086523,0,-0.02321288
1764917116656,4.19943,1.5562311,8.508993,0.013439035,0,-0.032986723
1764917116711,4.213795,1.5897499,8.506598,0.004886922,-0.002443461,-0.042760566
1764917116763,4.2305546,1.6065093,8.635885,0.034208454,-0.0012217305,-0.040317107
1764917116816,4.1276035,1.6304513,8.628703,-0.029321533,-0.030543262,-0.004886922
1764917116868,3.9743748,1.7046716,8.422802,-0.0012217305,-0.008552114,-0.012217305
1764917116920,4.06296,1.7429788,8.396465,-0.0036651916,-0.007330383,-0.02565634
1764917116971,4.489128,1.721431,8.367735,-0.07696902,-0.06719518,-0.004886922
1764917117023,4.6830587,1.4437037,8.384495,-0.057421334,-0.042760566,0.008552114
1764917117075,4.4795513,1.4820108,8.418014,-0.05375614,-0.035430185,-0.0012217305
1764917117130,4.295198,1.4077905,8.616732,-0.032986723,0.004886922,-0.0036651916
1764917117186,4.086902,1.5753847,8.573636,-0.0036651916,0.032986723,-0.017104227
1764917117320,4.211401,1.6017209,8.470686,-0.11728613,0.012217305,0.043982297
1764917117410,4.855441,2.0326772,8.365341,-0.7012733,-0.04886922,0.31642818
1764917117466,3.976769,1.1468226,8.719683,-0.45204028,0.19792034,0.50579643
1764917117519,3.8905778,0.63206923,9.172187,-1.2437216,0.06963864,0.5546656
1764917117572,0.79726917,-0.08140286,6.5002575,-1.9449949,-0.5338962,0.63285637
1764917117631,-0.21068975,-2.3798366,2.1452048,-3.9547415,-1.5858061,0.9126327
1764917117731,5.3223104,-7.9942393,0.93852705,-1.1960741,-0.029321533,2.339614
1764917117782,6.0262055,-12.605472,3.2273839,-2.2296581,0.9651671,2.3445008
1764917117836,7.9008656,-13.702016,7.5201874,-0.5155703,1.7336355,1.563815
1764917117888,4.9775453,-9.346964,9.028535,-1.0177015,0.89552844,0.675617
1764917117945,3.3183637,-9.55047,8.858546,-0.80756384,0.47036624,0.44104472
1764917117999,-0.89543146,-7.3286514,6.619968,-0.66950834,0.5497787,0.6743952
1764917118052,-1.5921441,-5.604826,3.9121256,-1.740966,0.5290093,1.1838568
1764917118112,0.91219085,-16.036364,6.2871737,-1.5589281,0.23457226,0.08674286
1764917118244,0.40940848,-8.159439,3.514688,-0.07452556,0.27000242,-0.12705997
1764917118298,0.088585466,-10.737994,4.144363,0.54367006,0.376293,-0.12339478
1764917118353,0.33518824,-9.562442,4.8698063,1.2315043,0.52656585,-0.3115413
1764917118408,0.6751649,-9.758766,5.1140146,0.9651671,0.20525073,-0.4642576
1764917118462,0.79966336,-9.476251,5.1379566,0.82833326,-0.13683382,-0.6927212
1764917118517,1.3431472,-8.702923,5.058948,0.81489426,-0.18936823,-0.81000733
1764917118578,1.769315,-7.680599,5.171476,0.68661255,-0.18325958,-0.8368854
1764917118634,2.2960393,-7.1347213,5.094861,0.5742133,-0.12339478,-0.75991637
1764917118689,2.2888567,-7.4842744,5.011064,0.35308012,-0.040317107,-0.6951646
1764917118746,2.2266076,-6.7253127,4.8219223,0.27122417,0.04520403,-0.56199604
1764917118799,2.372654,-6.1004257,5.118803,0.2773328,0.20647246,-0.39095375
1764917118854,2.384625,-5.6910176,5.1690817,0.09285152,0.18203785,-0.15027285
1764917118914,2.4971523,-4.5872903,5.470751,-0.12950343,0.03176499,0.13683382
1764917118966,2.2122424,-3.229778,4.4699745,-0.75869465,-0.16371189,0.93218035
1764917119019,-1.8124107,-6.727707,1.9800048,-1.4978416,0.10873401,2.1331415
1764917119075,-4.570531,-9.720459,2.3247697,-1.8765781,0.4129449,1.9303342
1764917119131,-4.048595,-12.152967,2.8874073,-2.035403,0.30665436,1.0103711
1764917119184,0.2801216,-15.078682,3.3446999,-2.094046,0.0012217305,0.047647487
1764917119281,2.4875755,-10.91756,6.0740895,0.9602802,-0.89675015,-0.36774087
1764917119335,1.4915876,-5.0134583,3.9624038,-0.91507614,-0.675617,0.10995574
1764917119387,-0.1340753,-5.6910176,1.9129672,-0.57787853,-0.29810223,0.63529986
1764917119439,2.0015526,-9.01417,0.031124622,-0.039095376,-0.16493362,0.85154617
1764917119497,2.6288335,-13.215993,0.62249243,-0.1282817,0.19425514,0.64996064
1764917119557,2.2960393,-13.996503,1.6543933,-0.019547688,0.68416905,-0.07941248
1764917119611,2.3439236,-12.423512,1.6184803,0.02321288,1.0360274,-0.41172317
1764917119665,1.4053963,-12.394782,2.6743233,0.7623598,1.3891076,-0.52778757
1764917119720,0.4381389,-11.669339,3.5984852,1.1032226,1.2034045,-0.8222246
1764917119774,-0.51475334,-11.224017,4.7022123,2.2162192,1.0421361,-0.88208944
1764917119831,-0.47644615,-10.91756,4.2999864,2.0744984,0.2968805,-0.99082345
1764917119885,-0.22505496,-10.333375,4.7022123,1.2082914,-0.07941248,-1.17897
1764917119941,1.1994951,-8.6813755,4.0318356,1.4416419,-0.096516706,-1.1801916
1764917119997,1.484405,-8.329428,4.0054994,1.5296066,-0.081855945,-1.0861185
1764917120051,1.8746599,-6.993463,5.473145,1.4306464,-0.10262536,-0.9260717
1764917120107,2.1906946,-6.1985884,4.6016555,1.4159856,-0.32498032,-1.0079277
1764917120165,2.72939,-4.9823337,5.1020436,1.6847663,-0.3567453,-0.98715824
1764917120301,3.6224272,-2.0254946,6.196194,0.9602802,-0.26511553,-0.6646214
1764917120354,3.904943,-1.5753847,5.535394,0.6743952,-0.18692477,-0.56321776
1764917120407,3.916914,-0.4237737,6.1890116,0.30909783,-0.04520403,-0.32498032
1764917120461,3.3925838,0.05746084,5.068525,-0.15393804,-0.02321288,0.013439035
1764917120514,2.870648,0.6775591,4.10845,-0.548557,-0.009773844,0.21746802
1764917120567,0.8451532,1.3359646,2.3463178,-1.4660766,-0.39950588,0.93828905
1764917120627,-1.6567876,-1.5993267,2.6719291,-2.2052236,-0.30665436,1.926669
1764917120684,-1.9919758,-8.880095,2.9017725,-2.4324653,-0.13316862,2.814867
1764917120739,-0.9911995,-13.661315,2.693477,-2.806315,-0.29443705,2.8502972
1764917120852,3.3063924,-18.488026,1.1707647,-2.3994787,-0.6462954,0.8026769
1764917120905,5.6359506,-13.424289,5.29358,0.18325958,-0.6450737,0.45204028
1764917120961,4.0198646,-8.018182,3.3614593,-1.7641789,-0.24190263,0.65240407
1764917121014,0.6631939,-7.4627266,1.7166426,-1.7275269,0.21135938,0.66706485
1764917121068,3.4715924,-11.425131,0.8499416,-0.88208944,-0.07452556,0.6780604
1764917121129,3.7972038,-14.369999,-0.10534488,0.17348573,0.19914207,0.1441642
1764917121186,2.8299465,-14.207192,1.0055647,0.6646214,0.54244834,-0.54367006
1764917121246,2.7868507,-11.930307,2.303222,1.2302825,0.6597345,-0.79290307
1764917121365,2.2050598,-12.504915,3.8594532,2.3054054,0.65118235,-1.1569787
1764917121418,1.340753,-10.503363,4.805163,2.574186,0.6377433,-1.2046263
1764917121469,2.2601264,-9.763555,4.321534,2.1991148,0.3359759,-1.0714576
1764917121531,2.4516625,-7.599196,5.207389,1.640784,-0.02321288,-1.0372492
1764917121590,2.042254,-6.8522053,5.4324436,1.4391985,-0.11484267,-0.90408057
1764917121651,2.3008277,-6.9407907,5.1475334,1.2119566,-0.21380283,-0.7086037
1764917121709,2.4516625,-5.080496,6.1770406,0.9602802,-0.23335053,-0.67073005
1764917121767,2.4756045,-4.7740383,5.0278234,1.0360274,-0.23701571,-0.39950588
1764917121822,2.4732103,-3.526659,4.8147397,1.2950343,-0.25167647,-0.5717699
1764917121886,3.1316159,-2.0901382,4.8722005,0.47769663,-0.36285394,-0.9089675
1764917121939,3.751714,-0.25139117,5.056554,0.02565634,-0.010995574,-0.51923543
1764917121991,3.3423057,0.40940848,4.4125137,-0.49846604,0.20525073,0.036651913
1764917122047,2.896984,0.5770026,3.9432502,-0.7672467,0.3200934,0.38362336
1764917122183,-3.9025488,-5.00867,3.8235402,-2.0928242,0.20280726,2.3005185
1764917122241,-3.8546648,-12.98615,2.693477,-2.7953193,-0.32742378,2.406809
1764917122298,1.2880806,-18.210299,2.099715,-2.9798007,-1.2253957,1.8362609
1764917122353,4.4699745,-17.55668,3.1052797,-1.391551,-1.3170254,0.70738196
1764917122416,7.2448545,-9.3661175,4.4364557,-0.90041536,-0.6267477,0.675617
1764917122474,1.472434,-4.1371803,4.8937483,-1.4001031,0.3652974,0.8063421
1764917122532,2.3463178,-9.188946,1.5035586,-1.1704178,0.3371976,1.3426818
1764917122589,3.2632968,-14.104242,2.087744,-0.9224065,0.5021312,1.1985176
1764917122644,4.213795,-16.266207,2.657564,-0.29565877,0.4642576,0.28099802
1764917122698,3.1387985,-13.855246,3.2273839,0.5888741,0.37140608,-0.70738196
1764917122755,2.6767175,-13.24233,3.1316159,1.3524556,0.45570546,-1.1533136
1764917122811,2.1739352,-11.822568,3.0573955,2.01219,0.40561453,-1.3891076
1764917122864,1.5059528,-11.6430025,4.3502645,2.3860397,0.4092797,-1.5735888
1764917122918,1.9057846,-11.417948,4.1299977,2.461787,0.3885103,-1.5723672
1764917122973,2.1452048,-10.01734,3.9432502,1.1142182,0.19425514,-1.4404203
1764917123027,1.9728222,-8.793902,4.9320555,1.2718215,0.17104226,-1.3365731
1764917123081,2.1021092,-7.7189064,4.0916905,0.5412266,0.013439035,-1.2095132
1764917123209,2.3942018,-4.367024,4.5992613,2.2479842,-0.2443461,-0.8979719
1764917123263,2.0374656,-2.719813,4.175488,1.5467108,-0.41050145,-0.8918633
1764917123317,2.9903579,-0.29927522,4.560954,0.8527679,-0.21868975,-0.6976081
1764917123373,3.7445314,0.7038953,3.4261026,0.44715336,-0.09162979,-0.43004912
1764917123428,3.6990416,0.8834604,4.050989,-0.13561209,0.3567453,0.21868975
1764917123482,2.2242134,0.7613561,3.7828386,-1.0665708,0.45570546,1.0262536
1764917123539,0.04070143,0.088585466,3.2321723,-1.6175711,0.51923543,1.7189748
1764917123599,-1.9560628,-5.291186,3.6463692,-2.3787093,0.43249258,2.2052236
1764917123652,-1.6136919,-8.698134,2.8443117,-2.8857274,0.28588495,2.3860397
1764917123706,-1.8171991,-13.467384,3.502717,-3.0592132,0.25900686,2.3860397
1764917123762,-0.23463176,-18.772936,4.1012673,-3.0079005,0.16249016,1.46852
1764917123818,3.6535518,-17.980455,1.6256629,-2.460565,-0.21991149,0.7648033
1764917123872,1.1109096,-15.998055,6.155493,-1.6737708,-0.06963864,-0.02443461
1764917123926,1.7262194,-11.042058,4.5920787,-1.8289305,0.034208454,-0.040317107
1764917123980,1.2234371,-5.535394,2.183512,-1.6578883,-0.16371189,0.6243043
1764917124041,0.7445967,-8.872911,-0.4405331,-1.0348058,-0.32375857,0.9138544
1764917124103,0.34237084,-11.362882,-1.3575124,-0.23701571,-0.1441642,0.92485
1764917124217,-0.5363012,-12.014104,-0.9552865,0.12950343,0.21624629,0.20891592
1764917124270,-1.2785037,-11.671733,-1.1659763,0.1001819,0.204029,-0.11362094
1764917124324,-1.7070658,-9.840169,-0.7110779,0.24556783,0.18203785,-0.29932398
1764917124382,-2.207454,-9.710882,0.15322891,0.6597345,0.12583824,-0.172264
1764917124441,-2.8754363,-11.020511,2.72939,1.287704,-0.002443461,-0.1563815
1764917124501,-0.90740246,-11.238382,7.869741,8.752478,-0.9419542,0.07941248
1764917124580,-1.4197617,1.6903064,12.124237,14.697418,0.3005457,0.44348818
1764917124633,-1.0606314,0.60573304,13.038822,5.2705455,-0.70616025,-0.61086524
1764917124687,0.047884032,-1.0965444,8.032547,3.4245105,-1.0384709,-0.91507614
1764917124745,0.12210429,1.6136919,5.805939,1.7971655,-0.64873886,-0.8857546
1764917124803,0.6631939,3.2752678,5.4922986,1.1582005,-0.28221974,-0.65240407
1764917124855,0.62728083,3.9121256,5.1642933,0.98715824,-0.12217305,-0.52534413
1764917124910,-0.110133275,5.781997,6.7324953,0.105068825,-0.059864793,-0.16371189
1764917124967,-0.79248077,5.5880666,7.85777,-0.28588495,-0.118507855,0.20280726
1764917125024,-0.4141969,5.60722,7.872135,-0.25534168,-0.13561209,0.15882497
1764917125079,0.11492168,6.1411276,7.548918,-0.27122417,-0.14538592,0.06841691
1764917125135,0.22505496,6.054936,7.776367,-0.15271631,0.0012217305,0.09162979
1764917125188,0.4237737,5.746084,7.9343843,-0.004886922,0.064751714,-0.0036651916
1764917125286,0.11252748,5.521029,8.037335,0.07819075,0.012217305,-0.028099801
1764917125339,-0.050278235,5.463568,7.8146744,-0.015882496,-0.035430185,-0.008552114
1764917125393,-0.260968,5.485116,8.056489,0.018325957,-0.028099801,0.04642576
1764917125450,0.019153614,5.475539,8.020576,-0.112399206,-0.03176499,0.07941248
1764917125506,-0.12210429,5.4300494,8.195353,-0.043982297,-0.012217305,0.087964594
1764917125559,-0.07182605,5.6910176,8.087613,-0.05131268,-0.057421334,0.12217305
1764917125613,0.1604115,5.3821654,7.9583263,-0.12095132,-0.10873401,0.19914207
1764917125671,0.6991069,5.48751,9.753978,-0.6230826,-0.34697145,0.54733527
1764917125730,1.3503298,7.204153,8.2169,-1.4624114,-0.24312437,0.9126327
1764917125788,2.2601264,1.4915876,8.212111,-3.3744197,-0.8735373,0.45937067
1764917125846,0.92176765,0.7589619,9.674969,-4.4947467,-0.9822713,0.10873401
1764917125942,2.3798366,-3.8762126,8.161834,-3.5063665,-0.90408057,-0.91996306
1764917125996,3.560178,-4.050989,7.240066,-2.1270328,-0.5925393,-0.83077675
1764917126048,4.06296,-4.661511,8.101978,-1.632232,-0.41538838,-0.8014552
1764917126101,4.6710877,-2.6719291,6.7205243,-1.2034045,-0.17837265,-0.36774087
1764917126157,4.050989,-3.952827,5.9663506,-1.3182472,-0.06719518,0.3885103
1764917126214,3.3423057,-6.5984197,5.947197,-0.5864306,0.14294247,0.5314528
1764917126320,2.0614076,-6.4787097,8.367735,1.2449434,0.21135938,0.5045747
1764917126372,0.5267244,-3.5290532,9.038112,2.928488,0.12950343,0.081855945
1764917126423,2.0590134,-4.88896,9.169792,2.01219,-0.20891592,-0.09162979
1764917126474,2.56419,-1.70946,8.449138,2.1343632,-0.28710666,-0.25289822
1764917126529,2.7581203,-0.8762778,8.932767,2.085494,-0.13439035,-0.204029
1764917126581,3.5410242,-0.7110779,9.114726,1.2644911,-0.09162979,-0.18081611
1764917126634,4.012682,-0.6943185,8.738836,0.8857546,-0.058643065,-0.23701571
1764917126692,4.2042184,1.0366893,9.131485,0.7305948,0.1001819,-0.1600467
1764917126752,3.7325604,0.6440403,8.396465,0.1441642,-0.017104227,-0.15882497
1764917126807,3.8283286,0.7158663,8.820239,0.043982297,-0.080634214,-0.14538592
1764917126861,3.7708676,0.93373865,8.825027,-0.013439035,-0.1441642,-0.10751228
1764917126919,3.7804444,1.0486604,8.901642,0.13561209,-0.13194689,-0.06963864
1764917126980,3.7828386,1.0702082,8.827422,0.12583824,-0.15271631,-0.059864793
1764917127032,3.9911342,1.3479356,8.499416,-0.015882496,-0.09407325,-0.035430185
1764917127085,3.9384618,1.2689269,9.148245,0.07941248,0.0012217305,-0.02565634
1764917127141,3.8977604,1.5705963,8.525752,-0.004886922,0.002443461,-0.047647487
1764917127197,3.70383,1.2785037,8.899248,0.008552114,0.018325957,-0.036651913
1764917127306,2.7341783,2.861071,10.103531,-0.064751714,0.061086524,0.10873401
