t,ax,ay,az,gx,gy,gz
0,0.31776880960379783,0.5553384833000151,10.03182762157045,0.09032578524273643,0.05978037128590766,0.0965062772711754
100,0.43069894889061133,0.5481901090570757,10.044321572282849,0.029094769751590057,0.022115895146451292,0.00690105436406554
200,0.35721002906348365,0.15402707925133205,10.06412221495993,0.02734980479187429,0.0608505671975092,0.015011861479686785
300,0.22612988283577337,0.3235602491525663,10.234103924878625,0.009249344024387929,0.02602446334754085,0.03826075725898373
400,0.5833242636869475,0.12448361980192277,9.937403337185433,0.043854106794275906,0.006972013836126268,0.0919138337374972
500,0.17923281256115095,0.5741755515205088,9.832219346945134,0.053229180717834924,0.04792995779751529,0.035466262013014914
600,0.2758947264397694,0.21810744740010038,10.03835233195543,0.06403217207461025,0.06329245855727339,0.04305437798633976
700,0.519712610408408,0.5849096732690572,10.105534939294467,0.05864324910569311,0.07396275910326218,0.0676072233182997
800,0.18035134033940128,0.17582889747822464,10.110305954499182,0.06418203430582725,0.003555301310070347,0.023343555919855742
900,0.15756379310782756,0.2869189763290473,10.148911180135563,0.011656551089812084,0.01851990509756407,0.03653693610479928
1000,0.5035301779468736,0.40723917299001555,9.842094702128522,0.05786719615844413,0.06230914797206785,0.020565698715185543
1100,0.40719369228292446,0.4730472442028911,10.060165433537101,0.078419850107142,0.07998182075227024,0.0719069181566814
1200,0.16967136558288723,0.4771003034705589,10.055550221414249,0.09189717187177432,0.04378341570474462,0.024582173147329158
1300,0.3841925112225878,0.23838439992323615,10.104530393148195,0.01580673694354241,0.0710372836041331,0.016625216248051168
1400,0.30303254486741527,0.2184176804760811,9.995697730232612,0.0299970922486307,0.042446259805221244,0.07064334168197937
1500,0.513327964528011,0.5251665173583495,10.087669262031524,0.05401693861459746,0.03803406004417686,0.02107359550126623
1600,0.5024455433042807,0.1398652070038278,9.865393888402703,0.09705777019876743,0.0855343165460383,0.009348275402881934
1700,0.20330405495431028,0.5834662504352258,9.825636411902831,0.03665007824443666,0.03437236073678803,0.0293056815184817
1800,0.3457952956457968,0.5867217772263625,10.077872457426464,0.08537180330286048,0.09893742305138355,0.04050259778295933
1900,0.30765250090279617,0.13373431597831933,9.855104765900519,0.020890572829778443,0.06739396934306906,0.012096468622588053
2000,0.3284317778142143,0.1633811222580591,9.991660938670721,0.007357489311500487,0.08584164137519253,0.01773610906351806
2100,0.4661996724152455,0.3184944939493739,10.187077824623765,0.04602472692345651,0.0625173074997404,0.0044026495452810675
2200,0.1679882628531876,0.43935114464925895,10.062294143757814,0.01773749425745085,0.07924222705767821,0.09940244889460546
2300,0.1009094953342887,0.40783108349135166,10.152695297748009,0.04209451977946465,0.05487572011761274,0.024807944782413383
2400,0.2447326580038365,0.45211240665281005,10.271228664408339,0.03353393879340382,0.06037954417934558,0.06032722421433501
2500,0.39147486621389316,0.4735799021350231,10.11626364801194,0.08189854292868859,0.09851875258095884,0.004061057721095019
2600,0.4822384370094055,0.5041651134524663,9.954376618968524,0.034200389353951845,0.09206018030936429,0.019794227896216845
2700,0.19620513046635338,0.5772577164769409,9.957323790372405,0.0024300662639487047,0.06810076799140725,0.03862780329812433
2800,0.10938323029915295,0.3618902318030356,9.973585951319482,0.03245837036714801,0.020170504665931534,0.007769722829014425
2900,0.44062030675888697,0.22346473482293336,10.082623247855418,0.029726059342748447,0.049669688426979844,0.06986816872876239
3000,0.5392060698060694,0.3619037465954038,9.882581634982857,0.07547161801195015,0.05316537237178009,0.09489478217667105
3100,0.5379547370145503,0.411044621186778,10.187580437948395,0.002202719124492791,0.06213563313397197,0.0549377063646626
3200,0.5633316842157272,0.5624388632632913,9.82248176044826,0.0007643602158962315,0.03143615195876105,0.08506000635868682
3300,0.3793460154856758,0.4372255122909374,10.087156781105534,0.016088423257677877,0.09890917760461075,0.05845095633704154
3400,0.2845517246953182,0.12029936329173993,10.064899214558562,0.062295477759867414,0.04990516193900464,0.09990307565652225
3500,0.4586801398950706,0.3215369592118005,10.285310154875468,0.09510912644414976,0.05961129891851107,0.06343323148929234
3600,0.20214190563220105,0.1521383328997162,9.834946038227761,0.08981515404251952,0.009651252969306535,0.013825242694182394
3700,0.12455926151166077,0.2679659789766715,10.280813281787472,0.006268008642497947,0.06810647316528813,0.08216413295993193
3800,0.2988984280547955,0.20163561183554787,10.003722440302681,0.011589686740677708,0.04865495146863374,0.004248278731118482
3900,0.44358327187048074,0.2792254680605375,9.99910692516441,0.05922079084502807,0.05496362362867532,0.017813353724328906
4000,0.145778209922883,0.36035235979702007,9.95487983009742,0.027029743145389553,0.09449047678747624,0.022249541718932397
4100,0.2745367332052263,0.2294901263666492,9.911804524885367,0.03423899597847792,0.09096842758921962,0.06474798125801258
4200,0.38926132700509275,0.49328963186678254,10.256557504185862,0.06439749453886971,0.0013322875854850482,0.008940472144447698
4300,0.23393298271963944,0.24201927726892533,9.856202324207812,0.0825465270398357,0.007883164581782133,0.009477847597575717
4400,0.4907181470572832,0.5627275463259658,10.15688964257183,0.03010037776053014,0.06003505150420629,0.003405725927079084
4500,0.527893257778692,0.5798351336173961,10.018946583700146,0.08032180670315008,0.012558613249180695,0.05167367862839933
4600,0.15808819413799305,0.11409126228100577,10.034337978660297,0.09391488745064125,0.030085573612840835,0.04257323853592762
4700,0.19484961961968164,0.33718848662521017,10.09069825372998,0.07658069066177435,0.02909482978773257,0.061928513690877145
4800,0.256578932447433,0.5696354046693903,9.946620158207999,0.08530820849275628,0.008290274762629847,0.035622590918506204
4900,0.21928988161073473,0.4424000248861416,9.859611761816378,0.0017711731443345036,0.06075571895599457,0.09533076344687087
5000,0.4469700705872617,0.24969594761654776,10.129712912891362,0.07391995691916288,0.03884078907924837,0.01886441381849673
5100,0.48568060450587147,0.23837309792012715,10.04201525592242,0.09469350104999412,0.03623099038440455,0.08664172820699279
5200,0.5659404459769,0.5810737506154201,10.107872648134844,0.035325210334201385,0.01697647935142064,0.005162232645928955
5300,0.16204107188999325,0.5444873934945159,10.219282822706644,0.07798589105429446,0.045932864447988636,0.09638859450003145
5400,0.4985340493631262,0.498285339854184,10.293165696025557,0.04886347536680705,0.014981284683461483,0.09091117734128654
5500,0.44244322913802303,0.4658613512627975,9.944421850941456,0.07632743103463764,0.08181228547347569,0.03332087910552095
5600,0.2538966747104985,0.49517415364659756,10.001161320462645,0.08656471368188345,0.05878134619043194,0.0713088225603143
5700,0.45550895004506287,0.49513626337967265,10.211418854268125,0.07241547918128799,0.09395365806608519,0.02955538913244883
5800,0.5234583294507242,0.4543864656546899,10.224167197280854,0.004532985132501266,0.045368370911522654,0.08169081669940334
5900,0.3103257121890328,0.1431434686233867,10.074706428786792,0.045341872186605583,0.02201324510901761,0.02553765336439594
6000,0.5291579033190276,0.3453584456190989,9.913750736133773,0.046835079454512235,0.08081286702986287,0.09872105555610936
6100,0.1459437927712061,0.4286169813347851,9.92883944243871,0.09464879744405325,0.07317271797043132,0.07262578542348651
6200,0.45155150911998854,0.10617580059674439,9.943332548205664,0.09131522178113857,0.07266305689410694,0.008471363089747342
6300,0.4790519952563047,0.41128010203953225,9.802409338169484,0.030812478460126403,0.07091959856751695,0.09676725000612658
6400,0.3205461084832699,0.220375528780713,10.185936651719203,0.03472668155965828,0.01368224751067524,0.0824062562795075
6500,0.3779334258643098,0.32406260604465875,10.054970142600292,0.021498356255756447,0.0758231184231463,0.03790648655148937
6600,0.5258689527840249,0.43124044033444764,10.272786398301493,0.050679105367329016,0.017046081697671134,0.06657571551180028
6700,0.2605986333563197,0.3666284617368214,9.851467562571031,0.03661642181779168,0.08602449930040759,0.02877371664088685
6800,0.10426386915098093,0.5316881658032354,9.858522966499514,0.0188696840450185,0.035199379921046874,0.021147977680557897
6900,0.2586280453836658,0.5043896279472397,10.025909324945298,0.009258191908071811,0.07201497260569627,0.09562932333882705
7000,0.4297834271184139,0.5345751831926601,9.806785217963368,0.09684667159748947,0.0474833024914247,0.09184800595214215
7100,0.4293027435888691,0.18649950251617156,10.240777834531746,0.042616250192188725,0.06393853894080036,0.022368231028905828
7200,0.5681227353981373,0.523587348631986,9.803485550612523,0.033188302904405956,0.09892590383616617,0.06116264513615356
7300,0.41064655726232746,0.20791326801428608,10.00393651101587,0.08114715228579146,0.0009857297234685091,0.017556499782930512
7400,0.5218794543550768,0.5704283163652711,10.197810688357128,0.017278927579366565,0.0463243351620247,0.06429649211656134
7500,0.10337847235672351,0.3785849190241145,9.918596849817423,0.013835809190095583,0.04674676036075274,0.06591087477631286
7600,0.4132347470791252,0.3481358615835469,9.92504211410457,0.06422306719792194,0.009518688450298919,0.008152331943557179
7700,0.5435331096626127,0.4697158631998952,9.803529401641986,0.08519571596718871,0.05004101695730401,0.0208223592403202
7800,0.5452230075626159,0.24186858218781546,10.056074231002814,0.023356945770521356,0.01408483709099555,0.04377384979048521
7900,0.28466977788575587,0.4427203598699807,10.009310581673919,0.09394770791953196,0.0965670667330088,0.06624353259070884
8000,0.5380464244830717,0.5612750202962058,10.008216791076038,0.09912210404230093,0.07918505499655387,0.03695730714866701
8100,0.21253333440617342,0.2876361779352452,10.281617265847613,0.02367470516006617,0.076050351859576,0.02765002722234431
8200,0.2987501745841672,0.46804876433039433,10.19833846651095,0.03494984027743937,0.07073991232340922,0.0747581917606717
8300,0.3952176981640565,0.17881976671910124,9.814488349362398,0.00794934760167978,0.03593207138222896,0.06638451992732272
8400,0.21488193269529973,0.26721710098454743,10.173713260604721,0.09878364204072623,0.06815009257474967,0.02459756018967273
8500,0.10092111182694938,0.33560375833572875,9.966428480664051,0.09274157529211398,0.06430768316203993,0.07083495849097506
8600,0.145193612722657,0.4344152227969187,9.993871171372597,0.04216397592014814,0.09068606091691853,0.06577669213848893
8700,0.3524120573628855,0.11795506596039537,10.043207972679983,0.06301187780903983,0.07888618663289937,0.01514881798503075
8800,0.3213781018334775,0.5272772845156559,10.025864527552027,0.06669146940247969,0.07888591386028151,0.07040791886468702
8900,0.4080269614189155,0.20709611456602053,9.98222036021326,0.03685079266317757,0.02666810150400073,0.046383967525837316
9000,0.1758130068239606,0.5821294119489396,9.837268638744266,0.04311880379933778,0.037053025072635075,0.07575965738678654
9100,0.26703845745006216,0.11376783250108372,10.264451163866603,0.05003011428361151,0.012175771067860176,0.004809603126968343
9200,0.37931558466558624,0.39833231460123075,9.918835080318788,0.04793500223496708,0.07285099472932081,0.049329962829870844
9300,0.47800667678753817,0.5761538163906199,10.099039016850723,0.09921923664157752,0.0719038914184171,0.05295803429182834
9400,0.16290548877989583,0.3344412978426434,10.283651607626314,0.0158541352212599,0.07539186550897603,0.014660799758737575
9500,0.3966592639223182,0.147067195548486,9.936058262918563,0.007664867556447486,0.05401631540546729,0.01877371923202117
9600,0.49771971408720905,0.3540358409052389,9.906975996051534,0.03893855866826528,0.006437399865803484,0.07956292473652896
9700,0.4777471646510403,0.24503678538221782,10.038611070787145,0.06598673619119858,0.017431367035871292,0.04709113369513608
9800,0.4019428104109324,0.2392343167259097,10.20253758757626,0.036431629836174144,0.02221201602385008,0.060318899591459134
9900,0.3199973008358895,0.14229931107466134,10.122430105567588,0.024006213347768902,0.07318628885646437,0.0629995699603457
10000,0.5171681885410734,0.1473204724596752,9.85465804350704,0.007220913511852745,0.003528656390721674,0.09875851634124114
10100,0.5354698098596234,0.25577575823401866,10.100050797368949,0.016384999829798155,0.07388505324518978,0.03976633325468512
10200,0.42576183800091005,0.36379919441613684,10.050397937324123,0.044202792613244585,0.0649574239483264,0.051117652852464945
10300,0.1904246500187802,0.43254854435000867,9.951742529206696,0.09618594472031132,0.01729408230824725,0.07424771252683175
10400,0.5132499981960784,0.16219006925725096,10.284208232377214,0.0008135792768669492,0.05123484656202642,0.08461728526439129
10500,0.2205569258661775,0.529505811502202,9.999289770793036,0.0643329063551778,0.012778944594496433,0.022111528785144132
10600,0.3395289750547996,0.25374675122764523,10.082231504489252,0.08494939598368405,0.056715999952065034,0.07693610337497127
10700,0.5392831876538999,0.24109273029987696,9.89165229119956,0.0840471717164964,0.014641919852747,0.034223173693218846
10800,0.5382202763970656,0.4084589631872365,9.999930917339297,0.03546400933028417,0.05059074243891455,0.07060403801245839
10900,0.580037804083679,0.33171628814883747,10.196711735147458,0.07083409611528564,0.054405626053787584,0.03647622720148247
11000,0.5417139908560481,0.15011376106632632,10.215563478184242,0.04867507905725919,0.027141399601774998,0.0016598908678220892
11100,0.3863110530274685,0.545237480970917,10.110734581483428,0.0959414403900445,0.0799051720690534,0.00020069633244637066
11200,0.5926602540134775,0.5752408498498032,10.134991469774308,0.08746250148832578,0.06750574068869113,0.027388847967265064
11300,0.35484864847644726,0.5816001125125657,9.992258144805641,0.057268613485600375,0.02401100400822811,0.0543811624367728
11400,0.5851724162018143,0.23673044683599623,9.851179768059264,0.01505597619365009,0.07941959194019778,0.0019796879761484368
11500,0.5073466036615949,0.28276249641525386,10.131010874182264,0.0990434637301828,0.04977346766958505,0.04115760467924639
11600,0.5398710098637389,0.14989890748603754,10.183822726024845,0.05440090445268445,0.039771607900467965,0.049666938817416996
11700,0.27845682459954957,0.4066880534815378,10.14667416464081,0.032735646463409894,0.09303200291659697,0.07843129953367788
11800,0.406346729260879,0.22864634165074468,10.175969632053674,0.03245606059366856,0.021465286575897236,0.07976980379499672
11900,0.24575283426862735,0.2983943650225711,10.260921806109899,0.06873598549309848,0.05151164639292131,0.01586086706671246
12000,0.4755238980822496,0.5885318186731903,10.123973760175266,0.02054307883545985,0.02528869308807069,0.024904468984015406
12100,0.40058703911249827,0.34744231944001014,10.02084653926042,0.021919619584333108,0.06625286969595219,0.03614218460072582
12200,0.4465283937953435,0.4484710498846889,10.25934377747328,0.055240146393549176,0.04991248114418842,0.012433141445652718
12300,0.2748789288015091,0.4028072334516575,10.294050145009841,0.0961318584546596,0.08431826579731691,0.009173335796994886
12400,0.32917783199885686,0.3700610797866951,9.953307972396976,0.08269591165575634,0.013137292848623406,0.07637948998141475
12500,0.1798417988327465,0.5417906137001567,10.116401187624865,0.047093495737081964,0.09826812815186764,0.07908757334815246
12600,0.5342392751616044,0.3959664882259679,9.990403181532807,0.03308000093811597,0.04988628073049217,0.032878672950220414
12700,0.14762345636921467,0.5752083100797828,10.23264703329898,0.023759791828213552,0.043290624201702266,0.06268314900512105
12800,0.21513178988448298,0.4386110143976254,9.956640667404635,0.04148485157349561,0.09638601120816309,0.08913033872816772
12900,0.5297790959241754,0.20845303599135082,9.95770166295078,0.04590005008771313,0.0920896754152345,0.09123166916637288
13000,0.14474263108112453,0.25905754047962337,10.286477930802274,0.04898604879513444,0.008156165578712028,0.05112147449450857
13100,0.20641295609197371,0.18148872149745246,9.810494544789153,0.0014933081262765158,0.004967351128732778,0.00843402075192602
13200,0.10162455046720767,0.29875926575399714,9.945931623010486,0.018715056025449785,0.043599277262636196,0.020730892545082005
13300,0.393919999315288,0.2674981886582902,9.867577345428444,0.008210953047839576,0.08506259439490411,0.0865522321313853
13400,0.4313286556343243,0.5968291189195403,10.029053843859186,0.06232901215553796,0.03283030223211682,0.019512627614201628
13500,0.4113585833638562,0.4263449999617771,10.270379876340927,0.07322563642961993,0.021332943525131622,0.045110279826100164
13600,0.2671245912241359,0.17955168504086047,10.022900350155345,0.02789403220776069,0.05346748206466626,0.08471616437901341
13700,0.17807688803970886,0.16438401939441197,10.18499767188402,0.03388589722420032,0.09164109323076082,0.07693126742716823
13800,0.5216661596522623,0.31551396711498225,9.915826927027501,0.029664093968558604,0.05638502560980507,0.043832658181417995
13900,0.3312245329368545,0.32031809573638803,10.246176916226679,0.059876592907883254,0.02762174973993964,0.04967733037863952
14000,0.24674289411119846,0.4170292970898889,10.23732470391456,0.09354579697757236,0.07017709631210378,0.0545509896101079
14100,0.3909180319354427,0.2879309492445874,9.949026717579915,0.09582508428389286,0.003852877630532614,0.08622630668242279
14200,0.10746424716391931,0.4578220737818275,10.004436694511137,0.08430552491630638,0.06335277043978553,0.058344058978963886
14300,0.12221936900138783,0.32476427318626433,10.097718188249093,0.044854309956875754,0.02780814953686256,0.0945276701887309
14400,0.3608559753486642,0.11058990179134745,9.924891430161168,0.08524040147400447,0.032100962846130364,0.0019617545675614913
14500,0.5063342983523559,0.3138389671941614,9.80932061843408,0.07705438149509625,0.04993960533404055,0.0441235091428997
14600,0.3533671765137304,0.5633488617048932,10.289699595454406,0.019551166263050302,0.03173542388088551,0.013645584526415212
14700,0.21879510169629499,0.1512470715913394,9.91071088479749,0.09757783489994604,0.08920278170927658,0.025020213680849113
14800,0.3994984538131314,0.36551764284421484,9.934537315138936,0.025142750020771754,0.08862076661559909,0.05405332823407755
14900,0.3408579698758203,0.43401050506364025,10.228810699367802,0.05298039686254609,0.0018169108288198068,0.09473693965923612
15000,0.2733706467471536,0.5552754406205055,9.952014284912371,0.02191773081462537,0.04852978451431164,0.04458412298437722
15100,0.5389948082210333,0.2244486006342762,10.038856097821336,0.059799308627339946,0.09516713222983579,0.07792567753162132
15200,0.5275948524359152,0.4288493868671539,9.97911498528367,0.05546107876645008,0.024079305531711684,0.06380780727651324
15300,0.48173290521100454,0.44194830738195323,10.197309935852827,0.08181614455360939,0.09206287459649438,0.022692420803511273
15400,0.4641114546855196,0.18140027011890922,10.172544319320474,0.04731262177044682,0.06224286834170685,0.07750047122594404
15500,0.18630294512798565,0.2953650079348137,9.86113203550452,0.05868524093388722,0.08772170823735889,0.043231184225663216
15600,0.45601887793684015,0.5973548918173364,10.104988068690444,0.09872882940432309,0.04433632205907304,0.008282306379358307
15700,0.5107028618620006,0.42332366906099184,9.90089552433224,0.004290381852439984,0.09855383023180204,0.08306697436000858
15800,0.29357233349938416,0.11844228372609358,10.203750446778303,0.00021667021084120774,0.09368780287955752,0.045775695469815636
15900,0.25268204878543554,0.41932837153727764,10.05817854258524,0.05649748927680958,0.05716490074527824,0.004480177104019656
16000,0.27983170076045305,0.42716941363157435,10.206053497371624,0.019566099701688645,0.06284176173007586,0.02450020459653738
16100,0.47236821913392,0.2702581935284154,10.115705589873716,0.026781761915267835,0.06607665712852823,0.03431200976883127
16200,0.3827733757774202,0.2614435779032054,9.899346260600295,0.08561619587214797,0.02913935345525688,0.04024068479779413
16300,0.16079799163540962,0.36433828737800367,10.269997801305927,0.009356492406473361,0.04058259980711381,0.05001443772231842
16400,0.31561186911490957,0.17154429442678873,9.848856217234133,0.04683877198307033,0.07068446845846263,0.07231797202978174
16500,0.5141854812262762,0.5815934352767415,10.072713474044686,0.00788645196699358,0.048420541622351904,0.048201960864107274
16600,0.3815430052889226,0.27581045600735943,10.153677405689617,0.09376491947771036,0.011121197135584116,0.060999384855058736
16700,0.4467084635347387,0.2913751748387866,10.107504386062532,0.01606999155911638,0.054725392064133176,0.08639164017089779
16800,0.12181640015346115,0.22873319345341356,10.033348829339342,0.08943437072321661,0.08266391210771568,0.012319754895658376
16900,0.35088350800212575,0.40842307211153384,10.27853364453334,0.06767244790826608,0.03868923013080997,0.04244529418128612
17000,0.18458536670517825,0.4908815613963632,10.017785343009692,0.06303408369711837,0.06373943473686443,8.612786668714678e-05
17100,0.3612503717462269,0.5973179637325603,9.88544235475341,0.0739281288982737,0.04488928004447184,0.05479595859938642
17200,0.575781862036861,0.22298566475318407,10.062038603514047,0.08006325862113677,0.094888823501655,0.025678226579395492
17300,0.3666808888346672,0.2250806548637592,9.93999779022878,0.0006414719297066052,0.04236080978420368,0.05152763148217432
17400,0.45135950383815593,0.5677772771947651,10.209662404041996,0.009350415777211052,0.08731022376611502,0.05497366152620236
17500,0.28397036181856017,0.10255121538762366,9.90534365913607,0.05155455963328213,0.027393869429970442,0.018186137997348063
17600,0.5190438918706183,0.3148650654323011,9.915191931723866,0.0016805516032979417,0.01892635234330601,0.0606230504001052
17700,0.5199118386758171,0.19202330880508564,10.291212989235762,0.06272409463021499,0.07992610601975607,0.02221687198412399
17800,0.3353493903209098,0.17534475161925553,10.004710983354265,0.01133758654317385,0.03336049292929123,0.06433334517395245
17900,0.20046991430202923,0.5748796458594682,9.996985805023153,0.08787806471962543,0.022616171371348994,0.06496148921038215
18000,0.3443077709221196,0.4266099948758867,10.147510662890731,0.04848049969935928,0.056219746376943325,0.042066553430134206
18100,0.17650078264933275,0.4719386943658431,10.152464638185624,0.083640831739846,0.07489844107833606,0.08918492442217682
18200,0.5092867635496741,0.5913645737867499,10.153501644622233,0.04007693856755887,0.014042362636896843,0.057040552648131904
18300,0.41057688260963165,0.15966009818451113,9.87341455115223,0.09293760123462798,0.0768157538452114,0.05536253899449835
18400,0.37499469132835017,0.16371314700334003,10.051105267583502,0.03100635473293686,0.005857115486591791,0.04563194314528898
18500,0.28392740081692835,0.4063911051452216,9.965322588604764,0.06569200863805874,0.08031648646628681,0.059313885379525415
18600,0.3889163980161955,0.38593824683129585,10.00509857655977,0.05036363387858636,0.0930551419080518,0.09474944568051089
18700,0.34355914895515793,0.3085132387850319,9.812808952217065,0.030498873318269715,0.09233740488728964,0.04665053358136431
18800,0.13647019753312092,0.5053686487125456,10.156403370123524,0.020549524189383106,0.06355225379905126,0.05820589283207755
18900,0.18303418360660503,0.3121755450869955,9.988209064882632,0.022227454424780437,0.01615856571882961,0.028817325059007415
19000,0.10042594093838278,0.44877271346919645,9.927423528566772,0.07362807762241468,0.0905342169484061,0.08313137268108839
19100,0.19745173073026398,0.13372525701336332,9.917381381674781,0.041468113473014406,0.03701223366848313,0.0840454411591211
19200,0.4881007122992097,0.49291612231925475,10.29756274407105,0.08891795749733922,0.0879258509911657,0.037019830663550905
19300,0.16542146870274702,0.583289658396842,9.816854400137561,0.013125927889102407,0.052505270438483465,0.06782834411356548
19400,0.1578484759824855,0.27531497858375,9.810725388003465,0.0747991805936775,0.03702325737865295,0.02904357967873783
19500,0.24839552651497035,0.4268133335998353,10.036536218802855,0.06384551034428158,0.05604481542959036,0.09967777809094364
19600,0.18730979762401115,0.5306704094727399,10.179873031141442,0.049669996840302925,0.05634006140363928,0.038020103651172435
19700,0.10540152062486355,0.13910442779338614,10.083689449911457,0.01224306856433034,0.06747510632308351,0.004416621732130188
19800,0.4657743338352075,0.5638098930141053,10.170578124101883,0.02426820511063406,0.04484934898904215,0.09787235717259465
19900,0.10419659654466526,0.18123634271188813,10.146520178660552,0.07988806184415614,0.07332070455930217,0.037380854218144625
20000,0.5726956215399873,0.1777282192587443,10.27759449680344,0.0917737304475443,0.03155588526906688,0.027290922670274356
20100,0.36536444765261156,0.4446491337355837,10.079532530084421,0.03752606349827897,0.018069330060083124,0.04757863165506696
20200,0.19527020573800416,0.3705710183973745,9.91107547925258,0.08369315405960377,0.04336860514327017,0.07628186349757737
20300,0.23256119767610609,0.2020898483029843,10.143755312640835,0.04582967775532394,0.07405403515984996,0.0752631056858748
20400,0.39766602716414123,0.3643119337377011,10.01312061098854,0.02095124935922963,0.05584842640308695,0.07899243444262666
20500,0.3115159780441178,0.5720209143786654,9.820189095562249,0.0855114105834775,0.04207847399477358,0.016394959653871177
20600,0.39108876029413264,0.17021132837172756,10.26068979139101,0.03723818964275442,0.022021628844382704,0.06107834611418226
20700,0.35249726519966873,0.4840625750480847,10.156163840125505,0.0985848240421413,0.014914341888831562,0.06370601449051788
20800,0.5835730376095422,0.20918825783423797,10.254899385286691,0.026486442144181523,0.050809828729464206,0.07136755978509056
20900,0.40175894703957393,0.5908292898680996,10.235760898092613,0.017689321156865234,0.0722431335914324,0.028703667382985288
21000,0.22439821162105303,0.40220636589122116,9.950068031384303,0.07884609538702102,0.01902853145384328,0.09944547252109631
21100,0.20362636719912905,0.5414022266275246,9.88515538114239,0.010068760065916883,0.06456255353312577,0.0898409196376953
21200,0.20277710521576134,0.5894811866647768,10.208706520203032,0.020401890452729443,0.01474342022291162,0.090213193366453
21300,0.5964478158269989,0.37902688433156506,9.965289693677391,0.06649274286583001,0.09371007458771113,0.013408358904297224
21400,0.401800595206663,0.33351118041257644,9.929598174342704,0.04583708486795707,0.07846573269327632,0.03797053639766277
21500,0.5117744441802855,0.27108805145193193,10.264093180109723,0.08714965790549349,0.017592877925239604,0.057746047229855435
21600,0.40116686037733584,0.16053516001591248,10.104786964828767,0.0970328942693556,0.03959022961946138,0.07596593244805129
21700,0.15958962084010622,0.35840851906022264,10.287893308223957,0.026244017093574535,0.07299753177564099,0.02867855081656802
21800,0.4154076450283323,0.10570201488477951,10.101862921779096,0.08798172550816256,0.006360821491366964,0.030940606655423655
21900,0.4570871465542825,0.26833166448738066,9.954222358591014,0.012820693079934798,0.08175301773561763,0.0989409457701055
22000,0.10737471965477227,0.28173049879628365,10.090492440859904,0.09492396875303677,0.009885091424439708,0.032013135563124816
22100,0.4895967710379502,0.5725049822836022,10.000602002206875,0.02797176252387178,0.011804923319391793,0.027278366453698424
22200,0.26844727391895673,0.5048941049012766,9.927659238957961,0.018084903823317577,0.07547281279697572,0.05730915018944857
22300,0.4303368487836987,0.29359591385813466,9.97282807778751,0.08132059785428732,0.02396456675210558,0.04548192075460292
22400,0.33435938109941077,0.5451114162901767,10.249667232368491,0.03578828131239468,0.04597171072966767,0.08649957496015502
22500,0.38499395843551265,0.2718600618845457,10.292027482666924,0.037665673211044116,0.04828895168499099,0.039875251299052394
22600,0.3872015763622282,0.27990811577454844,9.81458050710571,0.06175225102574783,0.07419974799446061,0.06972339663861671
22700,0.22516356122260042,0.49105317983272634,10.283439627721975,0.08238703409270454,0.018673840920936425,0.0816024952231107
22800,0.2546014334397635,0.10628243336039381,10.174411296817095,0.004699889890401343,0.07620923272374007,0.013669518513855217
22900,0.13583060947988432,0.20464582252917904,10.10678554674968,0.03719331304373963,0.02809067452578279,0.08029269970230613
23000,0.10259447019458143,0.3918657360377422,9.918089251580941,0.03970750905946298,0.04889430694846029,0.004123276532499376
23100,0.5119346594829476,0.2891079541286433,10.16055842372802,0.09126695593256884,0.03592541422735076,0.021861589715514176
23200,0.49395014880020716,0.4242063814702044,9.831650512492892,0.02174065184585088,0.019611495487115674,0.011460098450921975
23300,0.36391654079296276,0.48896478529699616,9.960504652788424,0.0862544267268713,0.03587204613514141,0.07269141944395016
23400,0.339370926904456,0.3973102317273548,10.148253416326627,0.035706211943299086,0.09722955724431298,0.06583160582337144
23500,0.10267231133404606,0.1112223302583801,9.808380479207862,0.01108219430686046,0.0070113376803575215,0.07358817052169178
23600,0.1356118684149721,0.18731969059991135,10.235953157022276,0.09572427589842647,0.09636036429272375,0.0283937803432755
23700,0.4269687757376711,0.44876850223556675,10.200148262711386,0.004439914277644297,0.05536605168657166,0.08111891997138164
23800,0.21678602968339591,0.5503360808823446,9.86150461310349,0.04526613753510636,0.08557195395073842,0.058148704344172124
23900,0.36226927420573685,0.5391862494366475,9.87741572266944,0.010140689165708185,0.057180175551182925,0.007878948588644597
24000,0.339733229753689,0.42889874177502596,9.856104098717676,0.07192716266736829,0.015192077079400746,0.010772138327504656
24100,0.10657222439591671,0.3137777704709901,10.135751458163801,0.032647461758179876,0.06544658746738778,0.05237580591494928
24200,0.5209004071409035,0.5354048595759474,9.890300625587487,0.02622180324380048,0.0445793917245253,0.0013851181226549715
24300,0.2487803732189248,0.16385769428019561,9.829789208039935,0.03476263236438724,0.01837104640733984,0.02541286692932523
24400,0.2365491703533308,0.5497645739586163,10.22035911635666,0.09847328516240983,0.08514744108969508,0.09797712284653838
24500,0.5968571422265748,0.44738403445606834,10.05471427901758,0.038965325366598295,0.09195830197131687,0.004883289844737826
24600,0.22593911981949746,0.22900555386694002,9.94547143114216,0.03606412679672456,0.06041133046741237,0.060078721708959164
24700,0.5053988147405617,0.5834822012669243,10.0873631107896,0.06553010747979107,0.08091947303659587,0.017034455492395986
24800,0.23728130141345957,0.23366785276718458,10.018692168488494,0.07664581591762361,0.051369063054664835,0.07172923182882822
24900,0.19197665646659431,0.32267417715330493,9.958667681765,0.058685992336326,0.057286966519550536,0.01198103510134052
25000,0.329246036339637,0.5418608781866884,9.872786686880687,0.062062637309205075,0.09768822155398488,0.03301488205056542
25100,0.41788293819784217,0.14859623547483572,9.80770864837391,0.004963690582078695,0.025965925328375095,0.018939369206827584
25200,0.48927693331499855,0.4423677396882272,9.891838699126021,0.06153279069247373,0.07561141838656987,0.025600597151753647
25300,0.49019117949690405,0.45750082671234293,10.010155959173733,0.032171391151188146,0.04600330610271043,0.021106599131648807
25400,0.2785871044408418,0.30032740935095614,10.122538053442454,0.0022050395206792083,0.08180535881464043,0.0020162775808861056
25500,0.13414029022518395,0.5032857568533391,10.147966603274245,0.06236359970986021,0.07272297123275545,0.06626039833346958
25600,0.2519295445446723,0.2908859732276804,10.028700522564582,0.02502651133767142,0.0008227286696142256,0.00533795318103597
25700,0.231583503891966,0.1792723527209105,10.078812770802106,0.08634970485518534,0.05473341950777985,0.015981916291283906
25800,0.10367228897773725,0.4757467749723687,9.96959576945037,0.09063587571376276,0.033036567428870914,0.04267259665537017
25900,0.12303229087145487,0.2634913264592912,9.889898615558977,0.01866973991009733,0.0714389557084717,0.02332295402009911
26000,0.2540524527245862,0.27285606809981044,10.141024653872371,0.060284492079455715,0.07954429185704992,0.06365180923642712
26100,0.16350817061341213,0.40645290538110457,9.931609701421158,0.06597268529547816,0.09236150850045666,0.007770943466634029
26200,0.45485212423080157,0.3141755508374866,10.02129287056004,0.011549021904846824,0.05592290791741941,0.05404045772726929
26300,0.11493718839810588,0.22767650171434947,9.943052051480288,0.07342364986089975,0.006910322724122265,0.017085675419303625
26400,0.5580740058696355,0.4328582616114506,10.227594141018184,0.014640880705700987,0.005302145057929431,0.02749935636122012
26500,0.251002863520877,0.3238046250554163,9.886312870561028,0.05220232426619567,0.09585026916978533,0.013414441667261679
26600,0.4055355558432512,0.16483876011541512,10.011727316995978,0.06454736494147716,0.09541641279054713,0.05145822118254143
26700,0.5531881764118695,0.1975892762377575,10.24756892301331,0.0857954916264356,0.04131199660748717,0.0987137838244304
26800,0.1773089076237879,0.593837312444363,10.102791848411744,0.021780282271791043,0.02564226436613061,0.024194630838578625
26900,0.32276339948567867,0.5992034718712763,9.966960318947905,0.05592083712271459,0.02859081480818315,0.09596035139160265
27000,0.38682728687662815,0.14161609015201823,10.20308545790139,0.02267583649965357,0.004821579277232636,0.01601727104794909
27100,0.10238756141811037,0.16093897922572428,9.881975320412128,0.043727409302853876,0.04470150557632233,0.01601599313878822
27200,0.1587572536113324,0.13827645739030284,10.112398231575682,0.04273722836580959,0.01686197307801254,0.02742606821766218
27300,0.14116457498398163,0.22331345318730858,10.16036513461504,0.021949261331814775,0.023432379104857393,0.018399929003012915
27400,0.46300078255405963,0.2002697977915944,9.880382734594967,0.07678471679959475,0.029960185497205194,0.034502354943563594
27500,0.5950736078047648,0.5296585361259964,10.214199640047942,0.03580091641333085,0.0060759192210575914,0.08267967053208085
27600,0.5891475208137086,0.2909669367911213,10.218777010521892,0.06306227949192776,0.04447040721251551,0.07825342930866372
27700,0.17216875126433093,0.5090389116668742,10.16861417777409,0.05422348198456774,0.0023033849906545,0.018925122219789994
27800,0.5417654598437361,0.5769117792416825,9.930013701777945,0.04988971099388906,0.04512759638642906,0.0010725265609678126
27900,0.2076802104110503,0.44941408408070915,9.900312279026483,0.09070877164707929,0.03450765855723468,0.027845063014299756
28000,0.49043253020368605,0.38386577976514424,10.233241826123061,0.09345133214223582,0.012241626193438916,0.023395266255277193
28100,0.36446894912058025,0.2852532239209098,10.248179873524046,0.056297488770537946,0.09821203723855966,0.06689505977970565
28200,0.4466489902867766,0.45010830906197385,10.28850242149547,0.003638840072926919,0.06086381779972292,0.0715025087781032
28300,0.5562610158662155,0.16923007655384856,10.189570546669035,0.020965248254182813,0.012805950637142528,0.03867902296325007
28400,0.11357877041096318,0.16859072442268427,9.821029801933761,0.07238651260781745,0.05031245880715586,0.010302776182550134
28500,0.474056692611199,0.3683322539037762,10.086412887579169,0.024399233806362344,0.03652942381694229,0.00854635590954178
28600,0.255932157472644,0.295548555567276,10.208973483098235,0.08317873961455886,0.008603314811949881,0.08243643219633853
28700,0.5889318306854799,0.45694875361007814,9.890249819010311,0.012509343697329534,0.05505222797861669,0.06587644357140526
28800,0.39758701131325425,0.2595171743567649,9.968864576730818,0.036273085928160524,0.07443663861368909,0.0929530417966835
28900,0.3950968579131906,0.37955473242019144,10.130904688793619,0.07010952505194014,0.04308583479907771,0.06418227362315375
29000,0.3395339809277421,0.22125410131579473,10.187885882278266,0.020477908025781366,0.09942523931896166,0.03491920425365134
29100,0.18139366427302508,0.15531807932388678,10.264601748708726,0.09333003005226552,0.0010235012904930897,0.021025109378768194
29200,0.1901880156979235,0.1057558518883068,10.202672913673656,0.0007678583907186232,0.08554227849589773,0.020659390278284975
29300,0.5616869822724851,0.453704860743647,10.251942140302436,0.03805303888229819,0.04816768660893318,0.0858099286932684
29400,0.5112090790590649,0.14464007008962873,10.116526519233712,0.06480100937376271,0.07292328425883453,0.09880618045564561
29500,0.3367396176824543,0.3906044944570223,10.06772881258337,0.09823540101215855,0.0066767881278689935,0.09065627703692565
29600,0.16641789961542655,0.5637852447164958,9.88274661941144,0.05321603190049789,0.09619922365628199,0.023905653814835715
29700,0.3734296979941949,0.111617221740165,10.239078099302251,0.00029395896452908413,0.09018307089319545,0.01484982013326086
29800,0.20513683697768884,0.28503404600847637,10.05477304173733,0.03072809963107508,0.057212550043391625,0.0846988725822407
29900,0.10207142033696595,0.5383938830631663,10.063007447188971,0.01678180008994398,0.04775804993986136,0.08702863860381917
30000,0.29227459530572275,0.19698799546315313,10.189108672257364,0.08082683380848188,0.07517099222512534,0.04556148270677035
30100,0.21869671568813778,0.4855959902954814,9.925290892426837,0.036021378109914175,0.008696903714807736,0.029037734348576816
30200,0.37627688118979186,0.3660163687426148,10.118685268638252,0.04899407056839708,0.039006586289572126,0.010877973189183855
30300,0.2597381545185392,0.13165205177492892,10.049920998617234,0.06763028542204881,0.05943269378734778,0.04696896851184651
30400,0.21179670616329696,0.5665407027549805,9.841847633172058,0.021748728611460433,0.059157029864908645,0.0665610522644228
30500,0.4846029863039023,0.21326997811941575,9.843955111624558,0.05674235160431154,0.09060250768694196,0.006662905822469246
30600,0.19170775837163959,0.4569975744480821,10.224297476976858,0.05435375392148224,0.08636779897113477,0.08420130303579637
30700,0.5238987828759822,0.20725005409110922,10.23109657950801,0.0313721183279268,0.0799145788847716,0.0963793392777261
30800,0.4722739151713222,0.14402413476623846,9.93073702898835,0.09512567830277024,0.035265088540946114,0.06044753120654574
30900,0.33839399344410037,0.5161098797408854,10.294866623643586,0.05277223526378443,0.055945189158516796,0.012039576229181281
31000,0.1250363785727334,0.30236692863606895,10.258835114845972,0.021503296986179622,0.06017130611460464,0.06551495040702991
31100,0.3553473927641321,0.3753033797121743,9.981978787415919,0.00038670254314070456,0.043469349011638236,0.046482288546875576
31200,0.11924642724372905,0.35079831030767317,10.10550300534236,0.04780125484502828,0.01507985658601564,0.05288858386473018
31300,0.5043394453021557,0.39538664973198334,9.934840644915946,0.08046386300451547,0.029582254527183795,0.08327952410667736
31400,0.4847780480595276,0.4826875087191439,10.237357791684941,0.013594578721696627,0.05652249041508554,0.0934395398398337
31500,0.4711613545890967,0.20125206483383382,9.99228159734131,0.08318368195689185,0.09673449102966318,0.02402680874205212
31600,0.33983521102984193,0.21410006443969973,10.226079827053654,0.09235683170301767,0.09915358383848656,0.06938005818649716
31700,0.5796091789709261,0.24707444264025094,10.150506768838609,0.09303853908185933,0.02222728178818947,0.016586484573047334
31800,0.3416077041515868,0.4425136340026584,10.278942475047083,0.025984945375529457,0.044829356781465615,0.015001756167753023
31900,0.18463264749122857,0.5866998527235844,9.847896950329117,0.0896657051604043,0.08378351047148055,0.05160373012746389
32000,0.16498559701421975,0.5517420592119987,10.185162067284105,0.07885637477284096,0.04267518405444897,0.03051011026789644
32100,0.3826016503287175,0.4309886420002471,9.938996774580344,0.09579329118786206,0.07976747813427555,0.08715424498867004
32200,0.38083586359391997,0.43917713280021975,9.969289656214503,0.08099847130898088,0.045005939641522066,0.057972405472898086
32300,0.10232128949348243,0.22825988418883134,9.910878755871245,0.00814325070831764,0.08469198663011722,0.07401786758421523
32400,0.38436056774978355,0.46684379387174335,10.265046857234752,0.09233160435265222,0.05434091647589197,0.025842139347451543
32500,0.5816184428738836,0.3577841978795224,9.870369046133629,0.08769265256202782,0.02881646621525008,0.029522069724732092
32600,0.32806468192425686,0.4931858660304308,9.943676544799693,0.06657314849342552,0.06930766737478296,0.04043268461547728
32700,0.5608564011615165,0.3356092663167105,10.162885722784882,0.0934520894655039,0.050572462644291376,0.09502052566430458
32800,0.4330194446558475,0.104704515217765,9.949388820959129,0.041537467824285385,0.0029727719966178515,0.05174288775133486
32900,0.5310922274676002,0.2554887776478677,9.863028352513895,0.006944647140302452,0.05713655246835791,0.06080115588939849
33000,0.23371127861543825,0.3829088807142399,10.101073049642808,0.08373305848744621,0.060115834509460724,0.08678274878573305
33100,0.560545479027233,0.4316108809127319,10.073565965002686,0.0778477894413518,0.09830189161232294,0.009911597033579678
33200,0.3122424432292339,0.5115465289007274,9.923958774273324,0.047331197088589606,0.04337029240772405,0.011165581210722654
33300,0.5077038871757388,0.4145611153148362,10.276135786500578,0.010303266849485616,0.04619164521524921,0.09169446392323319
33400,0.34381198307728567,0.34366804096125314,9.843649059341583,0.032113557281582765,0.017905860743557246,0.07003135284992738
33500,0.5722249363661467,0.4304082612128076,9.989335148456489,0.08835774083270799,0.04116310108762736,0.05435789787673326
33600,0.12007298621940046,0.2004731690908336,10.113996467389684,0.08360277511676208,0.008266007543560562,0.024559539012043375
33700,0.4495190073383768,0.1214499796567152,9.892765206228663,0.01769403619527119,0.002156296102672872,0.03709941425030982
33800,0.4989114168864154,0.45921954512585395,10.294430424009631,0.04178641731458843,0.023596525910419164,0.05571430029152519
33900,0.5977682741410849,0.42578333457823603,9.836688340187074,0.02816114551625474,0.0713644473994464,0.01571713206090014
34000,0.44931270973126425,0.23828880419604295,9.881184108913297,0.026391136308098452,0.07396743373430796,0.03115456868406226
34100,0.36051311286493526,0.11396154013735402,9.807758325862912,0.008689683026551908,0.04014398962078113,0.09603357237203108
34200,0.39629867954091946,0.3809393227620399,10.013406493935706,0.034225469203125546,0.04021273910168727,0.059557917025287205
34300,0.43522390818144685,0.21329533059820768,10.136384460141874,0.05843122699593792,0.08127370002625883,0.017155608812162295
34400,0.20412814631045348,0.2302289326642116,9.903877563575529,0.033836345495459455,0.04472910006250718,0.06817859878628256
34500,0.3914624245583912,0.28263942645050155,9.872223238499739,0.013960125622873088,0.058634510728466295,0.08471563353728277
34600,0.13816641746351052,0.40673762345950604,10.22072231520319,0.06944590349361997,0.0038866490046988835,0.010161067869671837
34700,0.311449551747889,0.2820120749944377,9.84365678129383,0.05720484430855047,0.09039094481170815,0.06378914676769168
34800,0.5554701929113821,0.32846068012710294,9.87680447217723,0.01793425246577961,0.05899606190519307,0.08636726576762137
34900,0.21280003393137,0.2288890284727844,9.803032585770266,0.015798547830696053,0.058051052261652,0.08127409308450574
35000,0.4872843703883324,0.5957097240295576,10.063450657911309,0.042837039597544306,0.01880210407345625,0.05184457585501891
35100,0.2959031475990317,0.5155400510429791,10.262443508044653,0.02889262065635665,0.014178470363296336,0.06717929630240602
35200,0.28824716267463735,0.2510120184049218,9.959983693921702,0.025469044047639645,0.05615367811738159,0.07720781538344665
35300,0.46444587425427664,0.2915517555190139,9.898105902980586,0.06314892082729576,0.07223430494999472,0.03921372465152534
35400,0.18217740696209425,0.36879245991219245,10.127554115726374,0.002292057024654748,0.03323172242114921,0.055131738381137566
35500,0.3904340256992783,0.5573537851421149,10.176858736269361,0.03745689498702692,0.0772379107271129,0.07429609235581118
35600,0.31048483533650695,0.4375276482385342,10.008407512497921,0.09459960420536817,0.0648938547145985,0.05855691991472231
35700,0.2177944399546661,0.1401157288127828,10.178224505495248,0.04115805176169203,0.07003824899613377,0.04546773707841431
35800,0.1305462537905542,0.5938954781113811,10.130738686491938,0.06558273006876231,0.04172411210837351,0.03139439677581224
35900,0.17057116565487987,0.5772304892835045,9.82374299058917,0.048749437620577186,0.05159909093875015,0.013506133991989812
36000,0.2414888996581784,0.14741080823345418,10.239475538457253,0.056288765819846126,0.01949157279012519,0.07704659921277618
36100,0.18335521806935115,0.5164582644907801,10.211815055496546,0.04457220619760715,0.05513072845965609,0.016894924664635793
36200,0.3219770063838614,0.422302632987378,9.978015525494564,0.0676727167749961,0.06532056052695444,0.012262706558137593
36300,0.4219820519372127,0.10339994588369569,10.285336854673405,0.0737225601555565,0.04427212646434056,0.09720251795259963
36400,0.20461909571525563,0.13090497278408295,10.291315776075972,0.07780513930360416,0.004006239973824921,0.07527323201731098
36500,0.4614133376225844,0.3471055021392311,10.027234669171987,0.0763395381332724,0.08055803022356388,0.0716056838509611
36600,0.24773160684710635,0.24552455481414073,10.229673992756087,0.08860155164461721,0.054494237936417306,0.028799183344908275
36700,0.4762813135556804,0.37926935391025896,10.170461606659828,0.016301107652340885,0.08994590199189029,0.09881793092275586
36800,0.16717734533748504,0.5284921341657028,9.864570925727833,0.021804545689833445,0.05643739240459492,0.034228109731788726
36900,0.30793853861768283,0.2794488446051666,9.957317370086392,0.04085886967001279,0.05849125858285144,0.004743230579060065
37000,0.5662807082492534,0.5145298851627168,10.288468016790436,0.008895790064043197,0.035920814243065584,0.07890590957327209
37100,0.42268828850494955,0.4900335277098563,10.088811544334417,0.027856659370816307,0.08938138727510585,0.03565862739047372
37200,0.5991777650344625,0.11908770146590905,10.112614291114173,0.053046901788099156,0.061445169205679245,0.006439639185443747
37300,0.23332432549742813,0.19780665573286602,10.225899285656988,0.04563173708174667,0.057584831272079945,0.020399273947737828
37400,0.1510256287235824,0.21421395982385685,10.17329318511047,0.08103505628951692,0.029557194491983053,0.04186041056431174
37500,0.15188357784490628,0.4139588537694394,9.906244754901474,0.08403280533111147,0.07833719577599683,0.09596296617718036
37600,0.18270698150561362,0.2206583284385846,9.876596878735237,0.07827029577351896,0.07373086274684346,0.014065884111747551
37700,0.3136602304537842,0.13701395665552804,10.097677663830488,0.0032217970294588505,0.0305855756723191,0.030055920456176277
37800,0.3574656988446351,0.33692554273146347,9.939485190992334,0.06574893683902074,0.06211663211783019,0.028055727898758744
37900,0.5845552339494521,0.3742838322080386,9.94243184637454,0.022049594473707114,0.026703321433727424,0.06930240024955303
38000,0.22287080491056263,0.19236273287528902,10.250780371082088,0.047829572270974924,0.030024024934209716,0.06112009354553397
38100,0.5748468398221958,0.3521126916426779,10.103580000008048,0.05559603797097478,0.03175228826642416,0.07071477556849405
38200,0.34390516861068887,0.46273061753431577,10.297007286862593,0.015266541753492568,0.06277159055199114,0.03337378094017026
38300,0.3290054203751459,0.13786411298047604,9.981078636684924,0.06025588642592159,0.05389947453933367,0.003954213845917665
38400,0.261757476688119,0.3153148057173838,9.82666839384637,0.09138898532662823,0.0502500173102009,0.08426004041862002
38500,0.13916817760116992,0.19596337802688998,9.808004871510976,0.06307729323331386,0.07336208917666276,0.07258118597321636
38600,0.32587801730583354,0.20133074295200407,10.267303537507125,0.01858629583341571,0.09723285434606684,0.027295293358363296
38700,0.14333466227185396,0.20796588159146193,10.19054090542733,0.03428851792966257,0.04787102259554193,0.028408682078665506
38800,0.4925552162242477,0.3394898225272508,9.837181264140488,0.06285549288672378,0.016230965220424155,0.023248636581513795
38900,0.5148700319759979,0.29400563323888596,10.132633381890761,0.03848603389037876,0.023274022918680727,0.040586342050610284
39000,0.3481660731718147,0.2600309309284996,9.95193287309779,0.0877876345263487,0.05326208615868047,0.0747621664630455
39100,0.24418891855728778,0.11748378313876709,9.954616956343214,0.06149242113532575,0.07665462364942574,0.0589565436368834
39200,0.5003845226890912,0.3950873423033663,9.893923021198196,0.06313657569411618,0.05226135332982619,0.06675259416386901
39300,0.5277362009827737,0.39055712581742574,10.239525721562128,0.027843000205679338,0.06011199605006676,0.037401916997142515
39400,0.5228949695092125,0.40269032728530607,9.88276548754419,0.0503815097448562,0.05181295161074433,0.03601432345391255
39500,0.45361542338194116,0.37963405865183275,10.144412204421386,0.01987588043546549,0.03412241316582467,0.06264680102001748
39600,0.4351386382911052,0.5072788725260396,10.275365509597307,0.008853131075408749,0.0025614507556070867,0.07262657550792757
39700,0.5328339459371163,0.36608167847981765,10.109978527723813,0.07159099750977063,0.08658991202493971,0.014707243147246085
39800,0.4643230422404081,0.513715899256824,10.270022681515737,0.04588843343065531,0.0769609939979815,0.07135631847399591
39900,0.20226378639723866,0.34542168694848663,10.092513492070008,0.08106477753817233,0.07764922974518063,0.03226931331561166
40000,0.2264430942470654,0.3396593673441447,10.017473856311613,0.03203782732653887,0.02735330677172845,0.09790248891055314
40100,0.507861215239744,0.5531378224545489,9.956824193368677,0.07216496401500473,0.09912696415710913,0.06024826490567067
40200,0.14873062643301851,0.34938316795630275,9.896495860752559,0.021775649791570286,0.07541703247597654,0.09689155383486832
40300,0.5795835138680894,0.30703415396661826,9.881165641511592,0.005822117659866866,0.06756829436192666,0.05881333499625292
40400,0.5926245721128435,0.25547028524469717,10.103770228257979,0.09681132618008897,0.05567510659549627,0.0629674110925293
40500,0.5116804716884903,0.3604827349738151,10.044340594660238,0.039865819214394076,0.09044198082632823,0.038784567720032206
40600,0.47216055185262784,0.1727355278905194,10.134381506722635,0.05439417254191923,0.03855487499981626,0.09130141745319419
40700,0.46551645381972206,0.17911746107337764,10.055276814322756,0.07876042127389482,0.044306145107015554,0.01671934313009311
40800,0.3743950541311639,0.46718111250686856,10.244471395915106,0.014614568847205368,0.04987256606843904,0.0381151800238545
40900,0.3472299996623437,0.3936406287260258,10.273064152575692,0.025253468335849485,0.00813007302541864,0.09452433612046186
41000,0.2616767845221062,0.3748574104960346,9.99635707999204,0.04707618182709943,0.017404337122923077,0.08718786141923911
41100,0.2505754108335495,0.5568202867187119,10.01970932744161,0.0584967014613381,0.03528343464795447,0.0951843518148646
41200,0.16354039873304602,0.4280331900849179,10.02531886639598,0.07227167051807175,0.08086507265167325,0.015932618660581346
41300,0.3250067163774044,0.456384799407891,10.058694021270519,0.06459396102714894,0.08006561496842357,0.014898953711755437
41400,0.26506260195446696,0.2549527405498,9.953908142374699,0.022680076133435447,0.0871825840433902,0.006971965754715448
41500,0.5924869024901843,0.4495613891291722,10.07847350329214,0.017918512155229816,0.07523828733879767,0.098948207368467
41600,0.20103942571686792,0.3288677069493158,9.818675476452777,0.04503708252085781,0.045702409820229106,0.04749528391489169
41700,0.436711968334473,0.5103036906210762,9.959189742364565,0.024533498688017175,0.08287125487480995,0.0775351847235976
41800,0.5316992863262783,0.3203296084289984,10.182940163443256,0.08059329985082156,0.07801516152464619,0.006415718055309028
41900,0.48047748563342907,0.33083148234938464,10.087196318497028,0.06128184401744359,0.06396090192620245,0.051283904865464185
42000,0.1616449217170481,0.4395285262433223,9.998079565221735,0.0523555681808473,0.06321953908340473,0.031385622350886315
42100,0.24546765827774028,0.5491005899542912,10.038443454587444,0.03935369374989233,0.03507715137892799,0.08602148004905953
42200,0.5425463866922088,0.16093450250190774,10.123251695302113,0.09648209539611835,0.030750985759971584,0.08269783989636172
42300,0.32337901342554276,0.4975027529853573,10.28393311150566,0.043506509681199505,0.014244397982303826,0.05583055458750415
42400,0.25988878037245056,0.15007548297036652,10.163030422418888,0.0135948492576765,0.04731131350238358,0.011711399140641222
42500,0.32995611084493304,0.3624364790898671,10.077198210644118,0.03687913739033185,0.010088590682024657,0.03999397616415155
42600,0.22184589058439355,0.20405847377826433,9.923035902931373,0.03884149549528775,0.0055733566385201775,0.05836424720106647
42700,0.46407534297497033,0.3522211385786146,9.894093636059832,0.040350177316008776,0.006926322965190468,0.02014448803771617
42800,0.5004868049996427,0.1986425539576445,9.907781729121222,0.05294111452651097,0.07055522572268645,0.00032174980359381825
42900,0.22227596131552083,0.4006713107431754,10.190853436281358,0.098704970865081,0.0006966704631235721,0.061925258761014394
43000,0.10723954525919047,0.2580907024698139,10.057296964336354,0.006865598983618782,0.06141854188906826,0.06240222797729439
43100,0.2979609663569528,0.3032217863036213,10.05161320742633,0.03901078090013335,0.09777019187805776,0.012555556865162487
43200,0.15124412709345694,0.16751098479878143,10.060613597722192,0.03190163193523215,0.013868716253552606,0.003654407331512155
43300,0.5076395876318541,0.5960749629163687,9.834510000213744,0.035157625477391895,0.08815281338759737,0.006465647872009129
43400,0.1667623839753313,0.3259307036178348,9.967794807533949,0.021921266118423623,0.02827461385551651,0.08716369672752322
43500,0.3640719580141044,0.5642728988425076,10.017016636904483,0.029963518080136843,0.023814388799857825,0.08403820314506028
43600,0.35679259971444865,0.5437933853947876,9.884419430208608,0.014625217168090843,0.006558859560305908,0.026504167465483543
43700,0.5832326348834034,0.5988634715043832,10.002117604503042,0.06655296471242877,0.09016041513864326,0.06727201312984496
43800,0.4851913030365572,0.3054935292929909,10.092048343815302,0.08983893262423243,0.05898516392759178,0.040766592699642196
43900,0.16100713354983096,0.4488054118502277,10.05968939436527,0.03684251326326426,0.07391958621965981,0.06358193643448777
44000,0.19747412725384025,0.5179142929816111,9.94703610152407,0.0033426808435308764,0.07209551868359575,0.096239425921872
44100,0.5246217364665497,0.39903497964418644,9.86349928207504,0.04120053518313234,0.008264203701676421,0.06543084066068613
44200,0.13190141971092736,0.110601307410478,10.0109254774119,0.07788156405790252,0.09530634803287917,0.045209371261124266
44300,0.5894076145956999,0.21299538983596703,10.163191564190058,0.004027103712507119,0.07709219659128129,0.04038352781312054
44400,0.2895805459511883,0.2569202604175058,10.084504911049173,0.003219650366737792,0.01950181072299787,0.0958485315724589
44500,0.40553459643549883,0.2766311686755456,9.895906837260547,0.08913833339690201,0.0832616926924741,0.0019088483387789347
44600,0.2575765337797663,0.5018051948223756,10.157965196184744,0.01855328871759746,0.07781929564045445,0.02079954396535494
44700,0.2141651674913159,0.5693152387119522,10.09590531476698,0.05558106250375114,0.021165983680584078,0.05373412817798097
44800,0.2936262639150816,0.30924169573459936,10.114167127916962,0.03578780385160683,0.06415292399049921,0.05589446075818071
44900,0.4430878454694126,0.4518723608201719,9.949770646470647,0.09875648412468169,0.04483488361414023,0.09609570450480227
45000,0.24948206576367535,0.5506048005663384,10.230365630558168,0.088424504395114,0.09055745282204782,0.04256864804551206
45100,0.3413202553137815,0.3048813275509683,10.0948473267694,0.06927868799028297,0.032644413061487236,0.005473329703537366
45200,0.3751973694554681,0.28622962685150677,10.251240431148702,0.06257755510403105,0.017406170138487245,0.054684974400157044
45300,0.1881708476560551,0.5832386883414039,10.161833666192113,0.0987509513004789,0.05241816832840607,0.04761115246672996
45400,0.43774550244520527,0.17024077065855522,9.967150459106977,0.07426436880337263,0.08345809961703798,0.03704402488374329
45500,0.2228298165018117,0.2078492853115291,9.874600274421022,0.05898111505780476,0.008606653537146602,0.06864969803938267
45600,0.14161485499831586,0.3720373450925665,10.217481386888247,0.019954015642186542,0.07829628607008354,0.03662334980623309
45700,0.5910861301277576,0.17581518384838155,10.199785188287944,0.09935645732373517,0.05489256805256948,0.08680357120136482
45800,0.33553930921466535,0.21157583051524184,9.97986357541233,0.020637259175870417,0.042043637317836884,0.03050014822878716
45900,0.45066465626275976,0.18080817123099116,10.18814597034734,0.04603010096484222,0.08977354867053168,0.09255528215108243
46000,0.4296203035022723,0.3006425604782549,9.842331997054236,0.04398241288367277,0.023742740921483232,0.0676653655152748
46100,0.4432989845331301,0.23138402422447538,9.957726264526295,0.07856187165881297,0.06020190249344304,0.0460228379347185
46200,0.29952265678659573,0.10066272735437423,9.833110568523,0.043717492675420445,0.0830175868402637,0.0034964773156705656
46300,0.2525066570417005,0.13563171054792203,10.024930762014417,0.08409566262191426,0.08781933816269062,0.035757996601211615
46400,0.13844429681052486,0.18889361118155926,9.99468820805693,0.060329198617064185,0.06998062451044315,0.02899797289106687
46500,0.13374955314629985,0.1807730037154551,9.88228929495605,0.09643293948014917,0.015244908120618695,0.08100194498640224
46600,0.4825246858966157,0.10273168412264452,9.815941560501336,0.06480836196709464,0.06186890522767319,0.00023731398605582045
46700,0.13278004489028208,0.42028908695735656,10.132212192566634,0.008913198313677706,0.016486148723501626,0.06523882478634872
46800,0.3134982489842917,0.20796894989243705,10.160926347298336,0.04072080924607335,0.018800046999226983,0.08922928162641808
46900,0.40827255241481963,0.40637917376650357,9.949209347725311,0.09441961437964025,0.07852459668040886,0.08094570466683855
47000,0.24576205470716175,0.2515756849462105,10.006352092330781,0.0012304034175107726,0.07124783746546122,0.015472370592397477
47100,0.38404811946573325,0.3938704703080925,10.045604668600902,0.06552046619115152,0.0224704891308836,0.032213154843839666
47200,0.4114442797032033,0.2656641664748164,10.245467170665833,0.07207049517829761,0.05863445313007947,0.06757703783876813
47300,0.3518297174017827,0.39476230869255624,9.888382277713164,0.023510863444387953,0.05836322778703082,0.09134461963233213
47400,0.36612460985797446,0.2509113936802104,9.960767681153596,0.04856214892944465,0.09239505426997162,0.07148295838305187
47500,0.320664036404428,0.34732361029057357,10.259014618511447,0.011919585776309284,0.02158402047553586,0.008518444595874275
47600,0.26606163069152955,0.16088086666770177,9.975789366344383,0.004287830587098674,0.038939287923582255,0.01635332987891034
47700,0.5139175072028924,0.5833533339145749,9.974183326124695,0.02922993220785569,0.053523112100689656,0.015587604041013649
47800,0.19269063971542008,0.5601492508772136,10.253400113444656,0.0724444443591985,0.035786312882035064,0.08487893673395164
47900,0.49315040618995787,0.2504425997535604,9.857296951267232,0.05019819850874096,0.08933793270621276,0.020920696665352623
48000,0.384862578814552,0.23391926572624497,9.846200523232458,0.04301685970907531,0.041405431846030585,0.0934262887572545
48100,0.5042716509804491,0.1737669869090673,9.970315864181277,0.05469223537427666,0.033795420151846355,0.008673276685987875
48200,0.5945844050878084,0.59894017786373,10.001651059096346,0.08858700632283399,0.019563824730689017,0.053544145946721446
48300,0.1903920694151179,0.2627606007646327,9.924670579178915,0.07248822284627608,0.07078976269582281,0.006980867348971543
48400,0.10511581290133229,0.5578649158103464,10.007336330422184,0.09636358014814127,0.027819597498380658,0.09210648781707403
48500,0.4619413654783979,0.16241001075975345,10.258775158441411,0.08010927291249836,0.003402570757093593,0.012642271906821446
48600,0.15223094019445052,0.32536479079927705,10.115902890199067,0.07430329713032606,0.06508830614810623,0.05118364212914801
48700,0.27023302989538345,0.13951244297739782,9.853651267831484,0.029616186267872126,0.007333351150548839,9.466630254613141e-05
48800,0.5564596386360243,0.13858444269675355,9.94023724283681,0.08716017141990588,0.004272794615418541,0.039882639359720556
48900,0.12731835423517648,0.5646924007764272,10.271700454179054,0.02648078043898976,0.09226456257061885,0.04931230111723415
49000,0.18573545830977697,0.2860601956169474,9.912520317741093,0.07199907560654656,0.003638444687203868,0.061544278860671264
49100,0.367120963826293,0.15209543595191402,9.808936683865683,0.01538670167215086,0.030822451844177236,0.074769750745898
49200,0.31846457309266096,0.40035827382286726,10.055815685135675,0.008572336195179487,0.043888344664657124,0.09848909427937423
49300,0.38303543892200753,0.30177026583247935,10.18747794542177,0.061156027878601,0.0903764785622727,0.08711053454134729
49400,0.22407085629583776,0.599976037593744,10.160999102807622,0.06286491932704578,0.06142520713267712,0.07358964993610445
49500,0.328512237338771,0.305950739564792,9.947910961062911,0.07822452432624609,0.047205451919782204,0.04348837832353637
49600,0.36567417617713494,0.10235549440146871,9.947646073152729,0.03890594475594278,0.004808710787766502,0.06334687218909908
49700,0.4664012884970459,0.43860525826240726,10.27204765113558,0.08964503318591945,0.0021237358557414598,0.06253324137496223
49800,0.43620760048618235,0.5120423012930838,9.911599831523539,0.054161311551868874,0.0869990293126453,0.010537866104643079
49900,0.23211889354710816,0.21452187193706077,9.891370027892034,0.01945419867889041,0.03563479986782616,0.04962359597771766
50000,0.28728255864863717,0.14080461494718946,10.113396040376891,0.09084930797389565,0.03586209076515843,0.043016995170846534
50100,0.4236891359958769,0.5259206353162189,9.863414960962782,0.08166905156897741,0.0107692218265108,0.03512741509707081
50200,0.47160587987517344,0.42072378684239176,10.226315627434412,0.09659507366831056,0.08412736317637365,0.0845864794877647
50300,0.1801601285854045,0.5528323787066962,10.029129839660996,0.07284102601129815,0.024555734967397658,0.0018339217858860503
50400,0.49074550543106965,0.26071171306525165,9.95125262200744,0.071875311843971,0.03874026669322747,0.029475170014937182
50500,0.4484116071127454,0.1609421007762529,10.2734378165463,0.03816785282870359,0.09251239968814601,0.08097853146018912
50600,0.1788916482796413,0.37169012923558475,9.869721060749733,0.002444256977836601,0.013079514147648554,0.08162081520929793
50700,0.27882772715191395,0.4334592436697756,10.261773876908835,0.0064497407087089065,0.09277328767910692,0.08923059917238531
50800,0.2646453667317955,0.24410683034367028,9.899552291241314,0.03305682605431307,0.03756015628426477,0.08810498518828676
50900,0.30013562234953217,0.18921985457753251,9.828242779106752,0.07125340619220581,0.03267420242980205,0.07088571356160636
51000,0.5068042956433741,0.11351835596265256,10.224325841782349,0.07642119290626773,0.014843680621614654,0.02282452612551196
51100,0.35632477152991704,0.20219959007992908,9.919023049873696,0.07218359603162931,0.015973165059967053,0.09782185144699766
51200,0.20132623007774683,0.20234459624947584,10.113880609436345,0.0853951663361547,0.002460088617167655,0.06682686422862126
51300,0.46332587412974047,0.49816003656132046,10.151449631297279,0.07449529222570962,0.04244101782760299,0.0025887181710524845
51400,0.17312637012946716,0.11795928997983571,10.24209163394698,0.09897723821175847,0.015256949949996192,0.0037556938977389323
51500,0.5387533820842457,0.5947930106177384,10.174638213503856,0.009494433783869528,0.03836551534488012,0.06937005324777502
51600,0.28815600278240006,0.43533969639115044,10.06285583326193,0.0987093086159774,0.047391915133847475,0.05521243203020146
51700,0.1335262244167099,0.22696400668361774,10.087318271228892,0.02368895090827482,0.05942677160032444,0.023606787144807274
51800,0.41462697357809764,0.5884600854907359,10.005396435699604,0.040804016311577145,0.019864571600256266,0.03571511506098997
51900,0.438208002378111,0.2863949533818063,9.930665816376044,0.004866997475736968,0.02318517026182583,0.04712678702041937
52000,0.38462661884798854,0.5583193943605312,10.118750980448286,0.09188326794312691,0.006287263083045858,0.0121978107258928
52100,0.3022942070832494,0.3295082867689686,10.21235099248082,0.07891726639757018,0.02388872728538546,0.029216287893384464
52200,0.3546547240895259,0.5489223164593763,10.115137841284898,0.009832764879744094,0.08745247809969214,0.043537809003818234
52300,0.2840916157583179,0.2628128927340425,10.16935235752212,0.08265583640728551,0.008137337683328128,0.09955381835743492
52400,0.5590310807307747,0.42106911397240154,10.050733123664175,0.06572947144354781,0.04300117252456102,0.024511690619648155
52500,0.40049422822006264,0.20947720633405334,10.061605031614102,0.08278472561970415,0.07636447341253481,0.07811362324926095
52600,0.561807692872046,0.16491659973412756,10.282686094075931,0.09221211116892897,0.020045121868238036,0.09928458382935551
52700,0.33384874178235635,0.17198926402415501,9.866823778712003,0.008491880402468876,0.054041164112119025,0.04835341212111495
52800,0.45632431104069826,0.30830767231539624,10.053581243127743,0.09446369100222712,0.015373247314147277,0.05428464225188795
52900,0.17150461226583194,0.5539384587410764,9.81927586201161,0.019019204400198265,0.008017584408184508,0.07777030688020523
53000,0.4850214622613567,0.10719161866639895,10.269558723825606,0.016260594410098684,0.004753657971462111,0.019529613345932163
53100,0.5136925584634199,0.46972270264071136,10.165866307044572,0.05602183743622285,0.07351719545445456,0.0009759833325029611
53200,0.48981913098841345,0.4633213311290021,10.162733578905092,0.0604984847490897,0.08820954347433801,0.08525169690542977
53300,0.19433627837622972,0.23459661963931758,10.093748430364949,0.028751722629720946,0.03751533256498596,0.08068468502413899
53400,0.4989452614410651,0.4124231975523086,10.269469921027733,0.0906876404785421,0.0803606333995898,0.06226255850435253
53500,0.22111071716638417,0.24458543837343763,10.245086360141237,0.04402446970022701,0.025249767970094497,0.003672790516258695
53600,0.592672624216349,0.5094039488371415,9.835337730893862,0.0568148171044886,0.011954343028657688,0.01959458037180302
53700,0.4821511190050718,0.31516655787095016,9.908417405588091,0.09806831889738393,0.030443369019095747,0.09528411254503873
53800,0.32919175737218753,0.31391344746636407,9.92193437626402,0.05455887266078168,0.04250897737782569,0.05930566059413819
53900,0.5191170114054479,0.1996938117971305,9.884330974697727,0.060373986891871706,0.08851454729726611,0.025186937245584674
54000,0.4523354409264172,0.29044425817384045,9.90217348574214,0.09185239024900232,0.014448591493660325,0.041040677159225485
54100,0.5734315950637541,0.4162048423745238,9.857960054397802,0.06888162393202131,0.09329761554070479,0.008490895735549142
54200,0.48812190286632384,0.3132775311886058,10.188981345839059,0.03327289457169574,0.0006270134429762098,0.058659544728153296
54300,0.43817901575723994,0.22925158849837032,10.058453768614635,0.07171836155024768,0.047849136841603704,0.057964716349957306
54400,0.45746636728523404,0.36381154683491923,9.901138803489285,0.06325659782417503,0.04808448682895194,0.07103481529654439
54500,0.10743333736091296,0.5400300376329348,9.90705708762164,0.07008309106923266,0.0621289963604434,0.06445474456858263
54600,0.38708099879490143,0.39614957248950233,10.020722423947065,0.011139042169426362,0.062272837774053715,0.05211928799617112
54700,0.42908164021566375,0.5548771207374207,10.19374666032738,0.013684143202957655,0.006663006031286689,0.04762106459897204
54800,0.3239056778344813,0.49804141638002575,10.057933717371258,0.019639259380620645,0.0821307774504626,0.0482154467744596
54900,0.13344615655421818,0.42987837907911663,10.197596477032661,0.09121557445627805,0.0020012994127667663,0.0592911952491228
55000,0.31746680523622084,0.4350981783515775,10.095597992445278,0.005161048470372887,0.04347734108236459,0.04251373860651162
55100,0.4229629285979063,0.2731008155968415,9.948418257926292,0.03331129828901221,0.0030441345922081475,0.056655532805287616
55200,0.5161586645273037,0.3438800892814744,10.01788374201317,0.05633529186152671,0.022839326559241736,0.07431795160494115
55300,0.2853335505314746,0.3299847306916459,10.104593948905844,0.03124776155694068,0.0550275004363247,0.05070982874755134
55400,0.5762249314574432,0.2361683535655771,10.003614417220472,0.03874816342385673,0.04132854593735196,0.07882791545695653
55500,0.12793832828249865,0.46822072741775456,9.946891375828166,0.04927442233561552,0.013750408334503318,0.03161851340051878
55600,0.39277531862088555,0.218801967021396,10.203153399348576,0.0331132953672209,0.05672589209975818,0.05555441461008659
55700,0.3181945917828305,0.51768735101741,10.11159459750189,0.0016656271112512112,0.036179146386841755,0.09044479520864916
55800,0.4424619567591721,0.3060896909151939,10.149989898062183,0.08852126229908114,0.0817081855699241,0.06887183147963538
55900,0.23329601258487673,0.10571109432010897,10.095401510207045,0.04228896154259855,0.0921852396095119,0.08459773476974664
56000,0.3717624071476766,0.3715313828222534,9.854129553378366,0.0946679099097334,0.06554345138518959,0.056800602929431045
56100,0.2520709463770465,0.5657896766161243,10.146777790905725,0.025325299119267588,0.0694932947645817,0.006305785073900805
56200,0.5646103760272149,0.47205167338972953,9.98282462826927,0.07684134414662158,0.02298469907895161,0.04887904348941369
56300,0.20892124834000594,0.2291329869482391,10.071570933331225,0.09832693337005649,0.008110791942095031,0.0069634081286498286
56400,0.5538400530285899,0.4795058391885346,10.160934600445739,0.061654547976086584,0.03311844429873001,0.02988162687582764
56500,0.110212906708858,0.21330906021959686,10.128920792565607,0.0758865994420157,0.05434331963483351,0.09226575481609295
56600,0.4115830989363446,0.4416614562815748,10.23575175470768,0.043512000889561045,0.03321346882170597,0.05882249496282829
56700,0.29696989919699635,0.5489070653274958,9.886464849112102,0.020191057524654155,0.02127603235371638,0.014474572557807097
56800,0.4738107802189875,0.569471346454852,10.144937680499025,0.00796236605130517,0.02315999267253174,0.07288205840977031
56900,0.4812238899860318,0.47716783387266415,9.910487505136842,0.003812346758300467,0.0049985661468510915,0.021610948481662163
57000,0.3231266556761898,0.2762240590781263,9.812773880196966,0.09332281686761337,0.05576045895559637,0.025499950194016796
57100,0.3706268482273245,0.5828018413162075,9.858492157551728,0.045211521452035434,0.04861646771800509,0.039609561310365776
57200,0.2898739717066844,0.38248662151668633,10.172221961073879,0.09584124019445846,0.05674731156425347,0.06152370787227284
57300,0.5430586232883083,0.5979305669639481,9.91813561179619,0.09521629699500155,0.06740517181649162,0.010246268356284116
57400,0.2986377895576028,0.3550010786382669,9.816939276767256,0.044522518373062536,0.09535535767892635,0.04392025844433625
57500,0.4446094844116901,0.5696788693311599,10.287223504027073,0.041041294206854484,0.017761633932525733,0.09263889932140437
57600,0.49951952472800276,0.1185107068393785,9.869391299959018,0.007912237270854406,0.054635354667733366,0.09417492612830827
57700,0.12288272974053285,0.49865551602321123,10.23159446268643,0.038367019474022594,0.054393100633622175,0.07662664404267609
57800,0.5586679818594535,0.5849242907016258,9.825769411049476,0.05274601708673894,0.013427250487992627,0.08802925085595849
57900,0.17755423660952754,0.11803240711170579,10.223385173170966,0.018623203284988257,0.08137941169805539,0.025526809727105283
58000,0.25674608919568354,0.33486246418924903,10.077000767895882,0.06265344011059072,0.046530068151057195,0.06650453069464748
58100,0.40304872046608164,0.1923043374996037,9.927581744930626,0.04453518492968617,0.025775396721953947,0.08000381011703293
58200,0.15125092737136095,0.4891320884935475,10.272824938530347,0.01752068396838402,0.05115916289300261,0.09149730475771409
58300,0.45166298845998853,0.4689220987647513,10.212180640897836,0.04267088957117025,0.07587812549872934,0.08865722525364049
58400,0.33419849504062327,0.14592105058201763,10.167342054833863,0.0072300088441890845,0.0678750538965157,0.05698902922744416
58500,0.17998837701117174,0.5630668954263915,10.089162931599583,0.08786049329363546,0.03462211431168556,0.09647519752598512
58600,0.42625028047314917,0.534814515319934,10.008030956246971,0.0754820984908885,0.05051646052588524,0.0035910082675419844
58700,0.21730512490850398,0.4938196494316599,9.937541017529554,0.03927901866404793,0.09659138543124961,0.022981973992254313
58800,0.48546161015104305,0.2816089103059878,10.07664034791921,0.06792840888477931,0.0031848195237524583,0.09139669994732973
58900,0.41655569001981163,0.24266805144138606,9.844768770060188,0.056145479728562035,0.05110368471591164,0.05678433639148814
59000,0.30306272093003217,0.5704922233303255,9.819442145407695,0.047045123703724684,0.009726495921958001,0.09370504588583044
59100,0.13399966953054612,0.15736362257214329,10.094503489187147,0.028444841706783443,0.06006146299750419,0.07593424365055552
59200,0.5292926192123789,0.20643911541196183,10.086306906274473,0.04992188671090966,0.059564835116639986,0.07959659719939552
59300,0.31228061991763023,0.23451329097578757,10.036905440588672,0.09111159060687896,0.07298772080237162,0.02838958516448068
59400,0.40951285765111645,0.27424773397035385,10.008026782838554,0.09923507714299368,0.006615416113071593,0.04434276599642596
59500,0.16850362246013537,0.3681237215246229,9.900539319798694,0.03054879552590517,0.0835245388615308,0.05461199326556487
59600,0.5107861872341793,0.5893588323303263,9.826926399025508,0.08271395478630598,0.020395675674343017,0.05873326391162223
59700,0.4069240781033351,0.292055362201207,10.162365834823998,0.02092584524494928,0.0330179718373445,0.03647314052727009
59800,0.5396981495562783,0.2727210790538632,9.941322595542703,0.08922675838033237,0.012452418632552309,0.016465009588252956
59900,0.41164277171283725,0.5630236209546822,9.821772228683443,0.04238695473044662,0.07746591590369198,0.028976199859226927
