t,ax,ay,az,gx,gy,gz
0,0.16085302663672577,0.16931266817451654,0.9937511643270356,0.0664237974460486,0.07600330413178384,0.09456980164677752
100,0.35842146352642135,0.4394251667771696,0.9402825781426822,0.02566697605756454,0.08944296897170748,0.031463546473143235
200,0.15321825338695474,0.5792804530112112,1.0205494742244758,0.017026276569193366,0.01711684445338878,0.06877776905200497
300,0.2026330730965398,0.5798827508281477,1.2685083131565162,0.09609663536473972,0.0570657208614886,0.09303795788983416
400,0.4718720044730067,0.14208105735553853,1.0596532768307538,0.0486912200928507,0.07262149562697998,0.057008468706372356
500,0.3997272481658005,0.5707085748224899,0.9273400348807658,0.006233074586620935,0.07360396303493243,0.012019583036040405
600,0.46052938265367793,0.5467612422131817,1.1914641040259413,0.012223982358601716,0.05668646576149905,0.08592959298254388
700,0.5493131661017594,0.4794709149201577,1.2267799156912438,0.06804388296303492,0.077306542667499,0.06395064223099373
800,0.46591498497161754,0.537036527240656,1.0525559553002408,0.0754847727254386,0.06121132151090297,0.01665712855112562
900,0.18725945298687988,0.15203242029368189,0.8131231851908357,0.08746187846233273,0.023418310267176147,0.07401923481573268
1000,0.13749290682397056,0.47409616504739227,1.1712969176963008,0.03768083590172621,0.06683193581164887,0.030282598297457698
1100,0.19581276004120338,0.5793525355468212,1.091739694395234,0.035540861995097865,0.06148538404854912,0.05503459653960757
1200,0.5486785610898847,0.1111655374523752,1.026498617864196,0.031675213922880634,0.06268141816314414,0.039314530938346186
1300,0.4955151598983307,0.4098465020364992,0.8820188057943519,0.07578178727536232,0.07706154424891613,0.0293839133372389
1400,0.26820683091571573,0.565846131643255,1.0113286191313573,0.0634030036851689,0.037535610065431504,0.056512139782096626
1500,0.47872569861019965,0.2645939423303273,0.9544791235407394,0.033240142079042544,0.09808984594330784,0.044323335098602416
1600,0.4977062347451673,0.33170726337613743,0.8837169386354804,0.04388380415238544,0.019476926359090308,0.00034561772479533296
1700,0.10132309399049219,0.33526964356240707,0.8577297066113256,0.029046545464189933,0.038555565153350325,0.07254288329824675
1800,0.1548691954431283,0.2600362295217751,0.9833574083833572,0.03530353856730321,0.009441193521881908,0.08644600930466347
1900,0.2675510682232548,0.53547967668053,1.2583321658992515,0.08010946889327171,0.030314874698764607,0.09362298866221591
2000,0.31604705948976863,0.2239581893661811,1.2324552961752033,0.020637840126878016,0.03907962701072423,0.033628010779892935
2100,0.17302263519033187,0.11190981035368955,1.0896212330144481,0.09545214709381782,0.045589362099504684,0.05215694949926536
2200,0.38840326580954443,0.35525247831889917,1.1205985405651089,0.0687282329268051,0.09185710320359664,0.02845119498996992
2300,0.479213146483324,0.5363619553067241,0.9444741085405477,0.009321253549398213,0.095355685475779,0.05243718301465753
2400,0.4805554797395678,0.49020339861453444,1.1286474371515007,0.015380308086256867,0.09664060134377683,0.05909949213743605
2500,0.5093483896455467,0.23147647987355832,0.872178611789417,0.08891838964302634,0.012158344939308586,0.09177433928329876
2600,0.4221776204720129,0.4822674196115069,0.8093347543495863,0.0999204730501676,0.09152402200555276,0.061265802800481106
2700,0.4321703418427144,0.33729401932915637,0.9827661831224179,0.0376089401332972,0.086674910020033,0.04602236474951628
2800,0.5958234603665207,0.33129039620371425,1.1762350174123823,0.05069511602933226,0.061500333048877746,0.02685408894974034
2900,0.10959928954052842,0.36674213401343014,1.2635111184406453,0.03744355750482492,0.05234509616565082,0.09018290168167598
3000,0.43119709920195903,0.16143546900590253,1.287572436512658,0.08850993109271629,0.07087239097966934,0.06648275810671077
3100,0.5076908336773942,0.10157481205053978,1.197232624594226,0.012081153677338996,0.08778489743201695,0.07657772388599143
3200,0.5221516017585273,0.2707935884718813,1.1933282280510078,0.0413013942276225,0.06872107479847665,0.03604498359857714
3300,0.2123612078652585,0.3428899515676287,1.04184515928321,0.00788799851254316,0.012986992292116773,0.011428382159881801
3400,0.17239316249080847,0.5393679633423805,0.9093409183194064,0.07083688209793515,0.008919499215990102,0.028414653194890963
3500,0.5295751632928177,0.3957029959961429,1.2797421837140976,0.00868955122812215,0.05767343463760626,0.015849360651864732
3600,0.4086747435806779,0.13740476946305677,1.138008654237527,0.027462716547967305,0.08594210677530334,0.07599611763347956
3700,0.47383052872475107,0.19504977178588015,0.809244347757355,0.04765583867882933,0.08542132180749354,0.08670340972721383
3800,0.262182502241598,0.4306226005161279,1.205939552279802,0.09231001170981219,0.03280820484343562,0.002008045980198592
3900,0.2551058430418889,0.5938473378917352,1.1238452638354892,0.08093705567231696,0.03125463657808493,0.0932932727554382
4000,0.3085863319105784,0.3577620675526402,1.232453971453388,0.032425405060492817,0.0031203347046525835,0.0403208907128287
4100,0.4517235537079898,0.4935357640155459,1.0530111319097086,0.031081066115301884,0.08233583059719174,0.008508173352668602
4200,0.19957119346050414,0.5673745145327357,1.2173532494370727,0.07811416922918987,0.02962775626043639,0.05804961296781559
4300,0.5640550523504054,0.45860691277015897,0.9035481513589041,0.03996814497447254,0.07389971636652305,0.08511859195506241
4400,0.3817409424633941,0.35952131862683545,1.0724435731755002,0.03736329520596032,0.09017484846231145,0.08199562914470222
4500,0.1105170090953482,0.5695625948051275,1.0651848438182843,0.01680266209419612,0.0981748211012391,0.026883594756136265
4600,0.48809581504067623,0.23152331600475082,0.8909483620159823,0.05481780316191538,0.019683534492206767,0.044107010456725604
4700,0.49178518536615734,0.2241439490006056,0.9186267165636801,0.01483386524704794,0.08705754924736442,0.06349707392134461
4800,0.49321946595514254,0.1945239325558694,1.0679985095048987,0.05717532677217581,0.0603555132686886,0.03942158623045425
4900,0.377502917743899,0.4704435550248679,1.218520658456697,0.0987465881125356,0.08121518704739755,0.0008227749531408591
5000,3.2216215997814284,2.1175183932280683,3.108139146952617,0.0953279032348867,0.09961380232314043,0.03519223831320252
5100,0.3818808408513019,0.5107525125737657,0.9430168367528665,0.05104294799248302,0.0002299395635634416,0.09045548184969945
5200,0.4559674262137249,0.264488247369563,0.9661312393214703,0.08059570189102705,0.059918105465502206,0.08663936006450215
5300,0.17900436835148456,0.10194005014721733,1.2176537213107723,0.023194219957550156,0.09258193031276513,0.0852465853838781
5400,0.44640368622498694,0.14994366495155934,0.820872983439024,0.035249557521165285,0.04144190107734629,0.04252017847696826
5500,0.3318541411173074,0.37511436922584007,1.0225544048342607,0.00033516222333445094,0.07201658339873418,0.06814493458244533
5600,0.509715957360122,0.46331851067373797,1.2738899745849084,0.019549980756804277,0.06626822911992952,0.0742543669983071
5700,0.3780270864222871,0.39670071785989947,1.1136509473804537,0.05651355314950823,0.011293204531756263,0.053746259668941226
5800,0.4228616660279254,0.3284946318818386,1.1636594939033187,0.016944695280042023,0.04454290791664714,0.021177963903479948
5900,0.4340271103758644,0.2691798279297567,1.1577488033579493,0.02685389062912759,0.07941123489646987,0.05498068076443402
6000,0.4724946113430504,0.11149017325339874,1.0504268215916366,0.004636302672349779,0.07494200987611073,0.02619117329493629
6100,0.13590994372073892,0.19071248113563136,1.0206398547817874,0.04523172120321404,0.006599946743784335,0.0007231140944987336
6200,0.35461609351351076,0.21838027461789802,0.8532519151028857,0.029887991115485936,0.06749416678511373,0.017158286475607243
6300,0.20337301165113922,0.27649086692988645,0.9020684267014596,0.020601168330946797,0.020174171648364325,0.029557816363122737
6400,0.5219697413242942,0.36208190633345017,1.2685729326552724,0.09743060323082108,0.030099622810430684,0.06933477460930997
6500,0.36423441457383077,0.4171362122176838,1.1995985719701812,0.08487464959742211,0.008551582587590667,0.05555127370635174
6600,0.3308600754135895,0.32729802696716714,0.8035922315392234,0.02091731116112651,0.014976274372215449,0.059496020264619504
6700,0.17570617886323017,0.27393809056562524,0.960623004518628,0.023561458967494765,0.03717861212141993,0.08057801363699996
6800,0.15647772524362066,0.14956418153573417,1.1489018074964923,0.013549840506632405,0.09332088768964097,0.0477929215288794
6900,0.48758457680279166,0.49722272017167823,1.2513129693445748,0.04170011540731944,0.0002641140992261648,0.008210794828651159
7000,0.1268344196457654,0.32935528278981563,1.2573918588528081,0.09847951324513055,0.0057363302530193845,0.02063694851464817
7100,0.5416476748401835,0.40651113453580345,1.0526543731838687,0.056286688234060425,0.08492341158221697,0.06125649190287183
7200,0.501370125841903,0.31432953375459827,1.2597072834553122,0.08047022976333884,0.0699378362857117,0.08154012500438461
7300,0.19024259434300703,0.37105749884392303,1.1655764972366134,0.060739209926167784,0.051835682270639095,0.09643245345505558
7400,0.22118870600672028,0.20397637605775557,0.8073239029915793,0.07830812396445481,0.009364597700750743,0.06344756869155985
7500,0.2834578380311532,0.4492478453815223,0.8167507905504903,0.00041097810963491854,0.049629129019647444,0.043312625360687376
7600,0.18497874983449622,0.33534825701385806,0.8709299526524008,0.04121148816163316,0.015450469659374367,0.07592046640987819
7700,0.18052697154133127,0.25027571690005024,0.9957604335358823,0.09604551030017146,0.0495353999677122,0.006078500119273656
7800,0.4186483275147911,0.1196085685265795,1.042590010303211,0.06350099955728554,0.02416678271367674,0.03828024278865379
7900,0.5745340809261833,0.1112659449494531,1.199898249953341,0.0544684971960135,0.06099112536702578,0.00854710840794839
8000,0.49138642705319635,0.5477521496063278,1.0691311651109685,0.08510086458279571,0.011184658618717747,0.09634768613717276
8100,0.5543154883825561,0.25816814263955645,1.0022244860887366,0.016894005774447052,0.03652228963831344,0.021958682140166233
8200,0.32421283586792726,0.3671816906345199,1.114310083262564,0.07590993065886452,0.07756436359749988,0.02603774378065823
8300,0.3624464223552064,0.5067508851316257,0.8886327837223982,0.07532951922707719,0.07410753900572402,0.02095209589542616
8400,0.17643412594804816,0.3994246204018741,1.2509424276517944,0.09328647665728164,0.019652243282264493,0.09202443571279248
8500,0.2496897682560055,0.30973480159902633,0.9488863086920818,0.023523999579606925,0.06094326278712284,0.035020122679946745
8600,0.1980204434310409,0.3544181964020877,1.2837774999343612,0.09205117419206679,0.05828065756876275,0.009695947772216829
8700,0.18987157945319946,0.42290127577041825,1.1873131430706794,0.06402250922938425,0.037363424705409945,0.09835261871497974
8800,0.2935535256791262,0.46130377004165546,1.0100426112906857,0.05134425695799985,0.09935109514466672,0.03268312448643206
8900,0.5823449082348716,0.25794084257333005,1.0844184496207006,0.011791916016567473,0.02106569298063009,0.014147000469402416
9000,0.2779819661265879,0.32194121516875684,1.0061389658368498,0.08099040266155935,0.07438129850396054,0.08146127503377122
9100,0.39705219170546047,0.48920766603789934,1.2484545306725177,0.027811368439863905,0.09345411768783224,0.015148403912873887
9200,0.4265568933267795,0.11853849851219747,0.8674294615025195,0.011607248072762467,0.06021636996950774,0.06662091926482802
9300,0.4599053514478666,0.449472665830857,0.8193264389085209,0.020675975987443796,0.08513990815291005,0.038264067638982796
9400,0.12047196447516353,0.10728329003452472,1.1774326414875098,0.06373237918487044,0.05787010693118664,0.008815766903889188
9500,0.11056147710324568,0.5507279231778639,1.1465502858766867,0.0009287468293206147,0.04173974351476317,0.06237013136862546
9600,0.5436827967893684,0.5219984373783588,1.0326949362645759,0.00048147561437912324,0.07581096327823318,0.04108458082701252
9700,0.4411472796191579,0.4877737981857022,1.0685889140794824,0.0965916263554338,0.0187503045116614,0.08654702335665292
9800,0.2940133987751611,0.38458414258816254,0.9390160566563706,0.03556560727981211,0.0787365443421274,0.03679718899191708
9900,0.38066857849670455,0.3251060930668548,0.9690361480968763,0.06752867439911653,0.04965974799502468,0.08216275173791998
10000,0.5726872785022441,0.2380463024422579,1.1211052676765398,0.03568074882883265,0.064619894885925,0.009541827832222306
10100,0.1891714439854695,0.3153401548680471,0.9449111353302742,0.030000713579001637,0.029120434963060694,0.020719987712597622
10200,0.37432778284303647,0.35545596163380333,0.812899532588353,0.0857280933780794,0.06116628538519969,0.07691468983265015
10300,0.2476886231264259,0.5602711121697099,1.2839719254690465,0.06731273575824652,0.04627288877874796,0.014500180782510409
10400,0.21700912759599975,0.24863667298042616,0.8973615493788021,0.06802613072689756,0.021683846946902285,0.05220940936169351
10500,0.323216790111423,0.4726540532243906,1.2916082879547568,0.02835119081105968,0.041420474380144616,0.005484292979875538
10600,0.3118979720991716,0.1670379748825517,1.0647238657823854,0.08538343998618958,0.03896464686011997,0.04411135514990186
10700,0.3390109350873969,0.11425586234035798,1.0387504567891421,0.08307726201730514,0.05938101436417151,0.018603883040612158
10800,0.17472608886144,0.5413664270027441,1.2112744310950814,0.05473437783724731,0.06985829051186643,0.0405244871347008
10900,0.2368245936318142,0.4537376264024058,1.1766968170830665,0.021389942360293346,0.09424216142014163,0.02376635541160348
11000,0.5963801659801983,0.2178933758776708,1.1158198789769782,0.07578194369063401,0.03142125128450114,0.06836157935716854
11100,0.31786222226919747,0.11307756510382413,1.2462097477457643,0.05702384817208296,0.03781507008416812,0.08459678347456183
11200,0.29497818943770926,0.20839610318632343,1.109076022193722,0.004646675569459735,0.08144018583075575,0.05975166105413654
11300,0.5929650234395982,0.43959149114788665,0.9013647611845428,0.02764076576515836,0.044939085765140864,0.04215660505698191
11400,0.1828568500130985,0.12947099464543058,0.870418576612757,0.0033900256474276194,0.036475410640541765,0.015684521601323786
11500,0.4202284605345302,0.2000925096210681,1.040896547770517,0.0850788059686923,0.0914110287993875,0.026197737683957514
11600,0.4194657090668089,0.5219477339876625,1.015344059179336,0.015612584971320832,0.011950742099836133,0.03910668603373814
11700,0.5281718383140115,0.35649950504828054,0.9009201386169416,0.06720260290454565,0.02425072416097759,0.031389507837558804
11800,0.5183313674466433,0.1551261075053844,0.9056422908594606,0.036325004440452384,0.05650866342048105,0.02371024833719958
11900,0.4914194199067905,0.5681943306412732,1.2549606485238252,0.010988140906653,0.0013671111382256075,0.09333983130717016
12000,0.5357682350388191,0.5203428091372075,1.201823012877266,0.05555997630078008,0.02506359277333893,0.046027804287514344
12100,0.5167324003373868,0.549858496309817,1.221991675562276,0.05459288990357122,0.07620009165769923,0.019164469386879646
12200,0.10924524817332584,0.547060918617108,1.120831752074555,0.07520589323584408,0.09700834644491221,0.0741398453868034
12300,0.13059216441383723,0.26766322023432887,1.2490199359497502,0.04126198502970283,0.07036515161427585,0.017773861795252
12400,0.32357665339382935,0.5086158760892624,0.9309738867832521,0.09094711354342638,0.08262732250946137,0.008269807692459163
12500,0.5733526348473372,0.2811513595997672,0.9738681973914702,0.022349929241316437,0.03182992870935092,0.016077193768354193
12600,0.47230692365977955,0.14032260398088256,1.0491979666011724,0.03591282640691301,0.042078097796081786,0.09273129976529239
12700,0.4764499847422291,0.1513821794288421,1.0601577063269947,0.043176363525293374,0.007844145453523622,0.03353571282282626
12800,0.5463539180182123,0.25723251904816,0.8772934544339086,0.029723329068370698,0.020580441901167357,0.01766248171764815
12900,0.45021444772460983,0.5834058283902352,1.2752134402339783,0.0827340338992854,0.09987200122373648,0.09314651057838869
13000,0.1442415277300814,0.3522926643876938,1.0154073634909921,0.030359348608483962,0.02811598199322625,0.020038483902086325
13100,0.17887476889150508,0.41705015379070753,1.269221899324426,0.03078910939893478,0.08065546261924639,0.027376071543079084
13200,0.3999913806366995,0.4417986623665413,1.1010197246875986,0.08819233444007725,0.030391008858814274,0.07425270075225303
13300,0.33948961648769893,0.5176755613974606,1.108973832187735,0.08713733876605745,0.0765670052496511,0.06522111644579945
13400,0.449618085411857,0.42000906045121456,1.1310512566059954,0.009565217114605895,0.07057513026625,0.07625611668190627
13500,0.2122237034430067,0.3897090017221295,1.1970999791342742,0.058967406219396404,0.05519648095590675,0.047999891703470014
13600,0.3159343195808827,0.4376025507655438,0.8381451088613979,0.015737032965559894,0.07216356660770822,0.01142873375128397
13700,0.3757201677800571,0.4289650179187884,0.8980164122497738,0.0712611012050414,0.0025724455719382425,0.08269382976204702
13800,0.26670028071816376,0.17123301067120042,1.1320805180117406,0.039708630182368726,0.07099240414135254,0.07451490961940457
13900,0.4207847084764217,0.28004535065722924,0.9579494023596964,0.056166147834503424,0.0013138638462977027,0.014224833844724782
14000,0.1565720091823525,0.23672327280362984,1.1036704080696682,0.09069853209952933,0.007928106385067834,0.008084481120842636
14100,0.5923970877627711,0.2619643384643109,1.0200953298822595,0.08178279975021652,0.015925576694864354,0.05658814210876739
14200,0.30560913573431614,0.3850871873783963,1.0086216430030914,0.07478676689309058,0.07545981792671483,0.0958734423286083
14300,0.5805557611136501,0.4672790838846954,1.2225727775117845,0.04742449685258744,0.06286234825410895,0.04587916483689364
14400,0.14662034374654806,0.32413924162019836,1.0646589702024816,0.047912073201128474,0.0444682045781908,0.03788406864688677
14500,0.540029484646642,0.5643361489847186,0.8945333908728158,0.005003727945883974,0.014592859415057792,0.06311489284409927
14600,0.3477139118227741,0.43037197762864077,0.8585357210901383,0.018529913933423615,0.07984239339081564,0.0803417274639633
14700,0.3423506241637483,0.3855047651607614,1.2139599428096175,0.04338358872182571,0.03262713067480129,0.0384253671689892
14800,0.5935442492196887,0.599607842703441,0.8950378464536078,0.030953341928534706,0.043517285190536305,0.00764537227419625
14900,0.22890995019030888,0.3933829650104337,1.0212160323154855,0.09165294241006738,0.006446281630235518,0.09593445674061045
15000,3.1586178611230546,2.2319820929235723,3.285443353493562,0.0012713067111699728,0.04253633636058754,0.053176096696292
15100,0.5954549092773271,0.5794585997322144,1.1510243071996467,0.08428341211597884,0.018342383858882528,0.09367339405764641
15200,0.3574555461236827,0.1672084585316063,0.9039363397429419,0.06455016665478652,0.08115179672169708,0.048450662413212865
15300,0.5847603584778386,0.1979252292459225,1.1157216718678131,0.007451329490957248,0.08968324033544023,0.02510821471832152
15400,0.33497327535333354,0.5278066684715744,1.2681796302106114,0.08982277154216912,0.07954283728558517,0.0860323792373438
15500,0.35606903550191227,0.5490304408043073,0.8564814111154202,0.06790847708315535,0.05802405245851516,0.02358545532310251
15600,0.3770269580357857,0.5877952609501728,0.9649013814504852,0.029920272764111945,0.039600126276102626,0.03765145251236166
15700,0.298326223345986,0.11799246621586204,1.23063124869988,0.016107101524050805,0.09319558481400728,0.0016548680373895787
15800,0.2717701368006472,0.20722675975415714,1.1494268613624463,0.035549095721128444,0.09788776006585667,0.009347359228045738
15900,0.165885685313677,0.14710465322162317,1.1303987629649297,0.08336042066434031,0.07665683459830466,0.05915603006234939
16000,0.4487593313476027,0.46115419766146626,0.8593931585178747,0.030926730405427795,0.006254426024963178,0.03992910486532909
16100,0.45173675247991985,0.5274960132728309,0.8104411044492144,0.09538155641735271,0.07743255088429468,0.06315049838295617
16200,0.10171042136618844,0.4454306026027264,0.9629855048570428,0.0042593432317309275,0.06892776512093128,0.0026918098032669424
16300,0.5952414586789612,0.27738274162047694,1.0302349756429392,0.00925969169360531,0.0896907673733549,0.06262587450145556
16400,0.35694467272368147,0.2554492750270515,0.936921322565538,0.050338498611297924,0.034430269706640405,0.06768440769016468
16500,0.44226304887165213,0.4262731659857204,0.8012304186238264,0.09027878375643017,0.06236517444742745,0.09753624632401914
16600,0.24504815188004295,0.3953421098408011,1.2121349087002171,0.08850366475824895,0.09433559815839898,0.02437208558114228
16700,0.5072891957395456,0.29251843929910903,1.0151384796610836,0.030511474427331445,0.07013685522327337,0.01628843356867501
16800,0.497586221248688,0.12685269503183647,0.9012803033171594,0.09656212919018503,0.047331982947764764,0.05556696815995752
16900,0.36820604415095226,0.5067120167184874,1.0489137942074982,0.05881251138894966,0.006616932246045416,0.08044046240246124
17000,0.1204224544415837,0.5980001954641481,0.8997394728309174,0.0632043201663222,0.08021084921002447,0.00024192987038909044
17100,0.5887856526723472,0.49043901063987716,1.1594251555354198,0.02937367614725689,0.026750224616590847,0.07947848239483793
17200,0.31684915348752385,0.5893385543208494,1.1430890055316971,0.02868086374289083,0.028258484277611975,0.014473679359504988
17300,0.4653376413702669,0.5207892930913144,0.9425527719699089,0.09174958607301864,0.07737312692341763,0.08013550448061407
17400,0.24236266158713107,0.15983194122853586,1.125303710120102,0.03912345296650576,0.014571033621310282,0.034619078181139
17500,0.43817313504953415,0.19199760882650338,1.1238058327994565,0.09917533119453026,0.07388150698728545,0.08088310928168113
17600,0.1277806132702394,0.24622841899994743,0.9794265740163042,0.01784894666149095,0.016757032998550414,0.009755344554312408
17700,0.4975795236103663,0.15142246068620321,0.8826409469005584,0.025337693120038585,0.037407428645546706,0.058397967425180386
17800,0.4057489934199109,0.29878730007513676,1.112531912071279,0.0894270133717967,0.06905004512691515,0.07444265412880356
17900,0.45738555578688167,0.16534552703145824,1.2324262860708792,0.014603902162995131,0.025792147567192326,0.05151699377718258
18000,0.5347290169133684,0.14540274724091792,0.8931069933054725,0.0737857569978481,0.09202629467341324,0.08832791527911066
18100,0.5595372812760812,0.11405840083155874,0.9220191723836987,0.06241802212612463,0.08787733043856075,0.010432407078369023
18200,0.5315441771927202,0.16385551662437706,1.2087701993103472,0.018004343322850204,0.0320903046775603,0.054758607915239926
18300,0.4417881366097811,0.2631370432252583,1.1800494645142767,0.09771040259695418,0.05222649694150819,0.02474806008096957
18400,0.23042833768529078,0.2095471885596725,0.9042017973816798,0.07688775539662634,0.069837750257129,0.054413031226929504
18500,0.17792507275220695,0.3928367745193184,1.249572015051782,0.018684071190861285,0.02353214870772762,0.03120565534117672
18600,0.2756335489557863,0.3608862042403247,1.14915653902142,0.01582926267606428,0.07146082484982624,0.08869410341315072
18700,0.4564071593037471,0.3093063681775565,1.0793048282328936,0.09829345501445771,0.013982253290958958,0.05723551306979057
18800,0.3436770943629238,0.23556493506836693,1.0648607369792562,0.07067105745349644,0.007729457537682638,0.07428283778948162
18900,0.3109179171611729,0.35968255634473234,0.8586948189999348,0.011909857211681241,0.07302192767736292,0.04499038850992724
19000,0.3570865324049034,0.33743715811967856,0.8989685743920983,0.05407921456918924,0.09829866153959055,0.0010704799528694741
19100,0.31216999266005574,0.5441696967321726,0.815864506695368,0.09933253805200498,0.08918733186114143,0.034906331795390426
19200,0.2685407590023716,0.32996259924651816,0.9983707809237155,0.08135697737155358,0.01825913447395159,0.04015829009393984
19300,0.5715345528864371,0.43695608489822657,1.1292546038015132,0.05755966637818941,0.06819965162210241,0.03350387738128655
19400,0.35200096418008153,0.5429940214245121,0.9547449500127709,0.07315112304021663,0.039219724076670515,0.07784801621159973
19500,0.4390705300525536,0.49028238978159167,1.1312055338219835,0.06055945660091088,0.048711999223186246,0.003997169646435916
19600,0.14827748762376394,0.260384876962643,1.0585293198428811,0.008174624737728077,0.02995466104731953,0.0064471015162812844
19700,0.39581747715149806,0.39294431266040775,1.0602373374721807,0.029788151252803242,0.017024160334463644,0.034672410811209774
19800,0.1588944877975296,0.5403541612328685,1.0736768843080415,0.0349049419285802,0.07345984506409414,0.09239701262984641
19900,0.2997492517070902,0.28760307079320546,1.1631812145135032,0.07012372045531758,0.04009642352286075,0.09343191798780119
20000,0.5849113139904344,0.48235557579831856,1.15970646087085,0.012637680386304851,0.018323276008548085,0.024619094426776435
20100,0.2959092359633124,0.592393292661071,0.8499762974726197,0.0899004315961838,0.07202667720063534,0.07188093717355068
20200,0.11747197340211038,0.42751798424819765,1.0961102872801776,0.04229323316158448,0.013573532757976958,0.08523811024961218
20300,0.12933252349190352,0.3896387436838308,1.2664532809279279,0.04071392436523258,0.031933943386093976,0.06854697094121896
20400,0.5341851445690086,0.4151121865162972,1.0570050676085574,0.05850680796543836,0.06030819886907294,0.03757503990345942
20500,0.4659278785987768,0.4980044176978916,1.0989847096620096,0.03451891964836792,0.014381092688885122,0.07919473339559241
20600,0.11051684677277354,0.49366578606640366,0.8075050810704113,0.08137472072140056,0.010272402052979746,0.058701261748885875
20700,0.16452068875340217,0.3240287717917444,1.1313184490164017,0.02707366453557282,0.05666276055353832,0.08266303463909441
20800,0.5148063197931122,0.38124153009919626,1.0296894593950603,0.05009691831039768,0.02502810491830393,0.020616125763860273
20900,0.3321495190245427,0.1922387468094294,1.1877505899624161,0.07861209572298514,0.00732567570155015,0.024302151366867666
21000,0.5042662414647009,0.41466274281609106,0.9029794896541098,0.003470365752515725,0.060619980998429614,0.04119380894939948
21100,0.14789296538074123,0.22478827278725885,0.87837701762432,0.07442473221364967,0.02973157256110011,0.06300618787713362
21200,0.55818345379049,0.5914311120451925,1.2017841347981557,0.002134362114940458,0.023842947601516597,0.028337179108511593
21300,0.4655791834468641,0.4305643382146782,1.2953028334707102,0.06687736735653638,0.05535913030656852,0.043525904071297944
21400,0.48637467044495597,0.30412258001911885,1.0778288111051153,0.06193323804381622,0.0322156727177104,0.05989792072659871
21500,0.31555161097288587,0.3718708279790257,1.1101194101999954,0.08640614667642645,0.08692273739037351,0.020231804049770832
21600,0.3264603216503241,0.5958037722958425,0.9843117273262533,0.040295697671513524,0.04861449624967423,0.031885772927780325
21700,0.4397994300057819,0.2510417874922767,1.13637328553394,0.09918948900118713,0.01943124705992181,0.07811514670002334
21800,0.5983659965559739,0.12437423240119491,1.1275207772023235,0.06659810227396167,0.003256537482165922,0.024835145370627476
21900,0.3174790150916199,0.41291043518121895,1.1091987014078128,0.018691101441977342,0.01416709497149994,0.03077991757022134
22000,0.5597409973399213,0.4478904298770352,1.1126642179862625,0.06132743467804528,0.04004785199391147,0.03957008357030403
22100,0.4440427801390394,0.5893985210912063,1.1381069673841524,0.051758334427288936,0.021907418475931664,0.008174411115142489
22200,0.29928810156513574,0.4880193718540585,1.2208202810109352,0.03523114207960542,0.005954842687968265,0.04758568699686101
22300,0.26346767271736526,0.36620800773921647,1.0549665033684197,0.01426267703613181,0.04035627455544538,0.03412777792333355
22400,0.19278153239318743,0.5392663501366622,1.2688933751458165,0.038766538971746825,0.049327606969429574,0.08908921150845278
22500,0.4469274072522531,0.31859909658452845,1.0675796340123427,0.05040327795960366,0.06932397616263643,0.025090106959592406
22600,0.28712070488109565,0.4249591154143131,1.0266341729370727,0.03737648924973027,0.07195107223687286,0.06358676370265175
22700,0.24556948463929426,0.5763829524910886,1.140607569481522,0.06155172522542545,0.04243227627435987,0.07944932563573903
22800,0.5559395010848855,0.18490835097216043,0.8465256642595906,0.07645559360326389,0.030428311169142366,0.07333332347371559
22900,0.25629765577346453,0.2700057098111315,1.2778752351003522,0.02766453015475,0.05658129771747792,0.01404222841646542
23000,0.19042835968978047,0.29898795567165515,0.9117620385820455,0.048405539316797856,0.07703721958285696,0.051092453696223505
23100,0.5921906844793071,0.17359649704041283,0.8688622613335583,0.09059011428659905,0.003396427873982544,0.005134699005808596
23200,0.5804449787807325,0.30906827723257113,0.9553338803494262,0.046521601456356414,0.09671348452742246,0.030340615938169335
23300,0.4160339075756879,0.4645595204096432,1.066364020990806,0.06288311660574596,0.07969243504706695,0.04149544865096606
23400,0.20588092127267174,0.45959448958617155,1.0093779654892536,0.006577824508663355,0.04956623960259054,0.04174424149205874
23500,0.2200139787389744,0.20290001254393317,1.0370976142489003,0.025216866721805134,0.023209616980237824,0.041416750792031144
23600,0.12855300573029363,0.48943022465379715,0.9634665437548625,0.07122900482747944,0.07317206765321549,0.05991553672194827
23700,0.30774801841058297,0.22704571817379146,0.9372999070223058,0.006299483704353459,0.08480150861690777,0.024006627932085335
23800,0.23108030675761224,0.4019181996155925,1.2830850198854888,0.07608868819465532,0.05436743759378185,0.04219393673619442
23900,0.2885335049875756,0.4792450289694954,0.9788706652941465,0.07546464110175094,0.09154264046428408,0.07556545381191083
24000,0.2961142466754082,0.1944086109036137,0.9650700578679915,0.041920956060501335,0.01059415194833553,0.0018946801223445832
24100,0.3054041459696951,0.16088540627754436,1.2764944843646395,0.08440731169229539,0.023132868614303227,0.005622552322285923
24200,0.13715441855041713,0.37096491773977214,0.8001994029318715,0.033853572861782456,0.09831560061052057,0.07237029071350247
24300,0.4564439969097297,0.2757319560587985,1.0622904517642677,0.0005227480346962299,0.033297582483706935,0.08124209973864069
24400,0.3691439771017322,0.24292187097954024,0.8509403004762772,0.0690419391142705,0.02735496630031007,0.04767499151163376
24500,0.12352375686782965,0.10353931371218081,1.0135848590895957,0.04648136470408315,0.005538354417677705,0.07103429118758726
24600,0.11580013580830453,0.2550198780464117,1.2124364309266047,0.08442816163340977,0.02812890533842636,0.091600410127424
24700,0.2991610775664001,0.11276678254471842,0.8082482148345662,0.09990617770472933,0.04204402393017766,0.021692190309212614
24800,0.5455811023451405,0.3065479098809347,1.0394618702841787,0.002205627644524677,0.07732250179369667,0.00747421853321586
24900,0.29802419396618907,0.5237965901893803,1.2174417136840339,0.05363040224907008,0.07146353345190416,0.005619714243880625
25000,3.2870884065559243,2.3930118129745983,3.1308089038323406,0.031075698644201136,0.0879167070917195,0.056495142316798475
25100,0.1349974583215162,0.5950842793918013,1.0577909619380021,0.004276868868249284,0.07230618679777294,0.05010770456504596
25200,0.3660638963924785,0.38463871786271076,1.2118421471160792,0.029468667809609973,0.007963327915424279,0.04649063154163255
25300,0.28278918836053757,0.5092039250713002,1.0843750403163588,0.07975477633372603,0.05498749697569177,0.02374688456136922
25400,0.43167992883558914,0.1443519210377616,1.2357055646963502,0.08168126166378512,0.022839733906498207,0.053233598372124935
25500,0.12713152010036485,0.31923218312689217,1.2949129511012365,0.0349388244294484,0.029524775328350728,0.027094459672684302
25600,0.2926105895251421,0.19572960910689016,1.0117034415496133,0.08681442325571073,0.039244543972060765,0.05116485543528004
25700,0.24790499659379409,0.387132767050676,1.0542023923310258,0.09737788950588772,0.040723172946091506,0.0670798557776169
25800,0.38358603047618944,0.1388195158780592,1.2151635136014156,0.05783600211162892,0.09799086742631848,0.08355098846768505
25900,0.5389200928679642,0.2968781248160972,0.8677527609552848,0.012351239205837096,0.0022838642980894,0.018250713617457417
26000,0.5617421464163718,0.5654001719181804,1.254586293215473,0.0488915444430181,0.04578750653099955,0.0409603899201074
26100,0.5455118882299724,0.5619106185966755,1.275739892017803,0.018228221965824187,0.0015412989337772465,0.0034363486727062133
26200,0.46261994446689614,0.5147955411528002,1.1423917065563445,0.09005556407186781,0.0779135052201736,0.07812821775809292
26300,0.580604950222753,0.19055573593652478,1.0893793497923132,0.06647009335353549,0.0522341208273892,0.0674203475422973
26400,0.36617641374094156,0.3290516442725585,1.0270112225890582,0.08530230099915775,0.029014484475556313,0.03267665948550448
26500,0.1573609164610638,0.2658993436813507,0.9012626531480883,0.011087381076979397,0.05797110005678179,0.06910041868350467
26600,0.21576677031407623,0.44333222634478564,0.9839008790704532,0.08710242942524564,0.07996552163593931,0.030668900436903613
26700,0.18658273728528466,0.4606324384494461,1.0967919064659473,0.06368438263506027,0.0980863206698054,0.025132269795136743
26800,0.10513021349764459,0.5633663522248088,1.0430206148221903,0.08948337210359109,0.09413651714392333,0.0716016835906132
26900,0.30089694877167705,0.3174220560176565,1.2199005031896897,0.0801035397861165,0.02124263063229738,0.07834405249917693
27000,0.21874314926920993,0.4234367677188504,1.1402765524819252,0.002220140077898436,0.06166401209593943,0.024020850540867833
27100,0.4039339423375934,0.5100204101948133,0.9766252029467131,0.09324806410803647,0.022666598092441294,0.05976937439805568
27200,0.29559555075749655,0.413185833164342,0.8223494573619099,0.043902787233367824,0.061220361515793464,0.0022654296082444516
27300,0.5377956911462675,0.1356646259606996,0.8245911780538473,0.06912322767988842,0.029642378787914404,0.07788198503286942
27400,0.24972224360712728,0.16335251658294284,1.2422157331337775,0.08419705624382337,0.0059306737975107215,0.03594087886622147
27500,0.14204268100484466,0.45199660401360886,0.9813082410433029,0.08789840896065756,0.024753783434556975,0.09450328231819549
27600,0.33515743531947295,0.3564059849679839,1.295831498277598,0.04952980318877,0.09304659768827533,0.013749434114130732
27700,0.33129001793186297,0.14670746695703604,0.9670029001170145,0.09619854998015812,0.09948420460177389,0.001819130283610837
27800,0.2693993287136015,0.5292543046483533,1.1926626872374908,0.04477106623052011,0.007460791928382882,0.03460679887798625
27900,0.2635763276467662,0.37952181231833726,1.1277902246115268,0.09170769850568147,0.06982119470215829,0.048865484988251086
28000,0.4392901126894304,0.5493653955510861,1.2483977053005837,0.06601935817616858,0.03137916974118315,0.03884357495689759
28100,0.1258409492261849,0.2937635251712025,1.0671903862593632,0.09260077139693028,0.016790029227016456,0.00542270108920786
28200,0.4429296638091428,0.23610840445353784,1.1838613858138782,0.07983601694241915,0.061070646479434644,0.0950758778291867
28300,0.43628458912756196,0.24377624653718225,0.9415267462109677,0.02020380529175918,0.031735490473060846,0.0564982300640903
28400,0.35078158566435336,0.5976686771860183,0.8071009418233461,0.09472916176192102,0.06100893361308432,0.0892662920200985
28500,0.37874257003652934,0.5923737068843722,1.2921940476199831,0.00669194836390582,0.09164005933994633,0.06437018661670467
28600,0.2761570848269489,0.3464706555636565,1.086049028188194,0.08057545575343406,0.04257467725285668,0.05621489184836803
28700,0.3320540717552162,0.27058715055634297,0.8957361448722161,0.08334739681067047,0.05389042590511759,0.06533135748794393
28800,0.30373490652675006,0.5588260542730404,1.222610510273205,0.09128633351088941,0.058516605397585665,0.0664287335772969
28900,0.1484882011942508,0.2166962770214023,1.101762974538725,0.08298696054256308,0.01397441548920312,0.0067505019542537514
29000,0.3437356727701173,0.5593529312050518,1.03586023573494,0.06335769530963851,0.08846028800825642,0.018175709361121516
29100,0.2312607413287653,0.15716055565888595,1.1327266663939242,0.03617814793119456,0.0923966449803093,0.03773729923224348
29200,0.3897227140524663,0.48797747439573624,1.2955262003480534,0.0776594497351262,0.06299080221968906,0.07831345176127462
29300,0.32650826021505996,0.30314230901727324,0.8998745425800003,0.07822816199777634,0.04635981216645654,0.03605102863178851
29400,0.2664421848328975,0.14907206617636845,0.82383677183291,0.08305966090568517,0.0003242323131698033,0.00948464917859544
29500,0.2509545070909315,0.1329809567544418,1.107353439907699,0.06679282625720998,0.08956892050824916,0.055572512209737614
29600,0.29301806761964777,0.3339179505708527,1.1339573810860435,0.050239681629041494,0.09908814204049096,0.08815241816627713
29700,0.48596516872914153,0.2551717601929474,1.2337284460985074,0.004718429474318531,0.09543029404133081,0.07383456516938756
29800,0.573155405024849,0.1118317407219396,0.9035368627836846,0.06993512626367941,0.016535341087578658,0.030217283673072526
29900,0.356456579103428,0.3636934463023188,1.0116936066215747,0.05216529204765923,0.003671585027499269,0.0015949929157261901
30000,0.45358032113543156,0.1729418628150097,1.2684705417856814,0.05657263239139211,0.03458016424980679,0.05558983789358227
30100,0.3847635424780227,0.3320525827283778,1.1517604503545718,0.0746949903174771,0.009562344672762992,0.060075119548564954
30200,0.2170261834154035,0.11049059623001292,1.2337988052747186,0.041110256406702655,0.05725746722170897,0.07822604636446046
30300,0.22048641214462653,0.5335458135209639,1.2746459829052956,0.05706880103782461,0.09568412600488416,0.020530775078606334
30400,0.14195440307708693,0.49080364040965907,0.9579057081693272,0.07438910086988403,0.029487102044418803,0.07607104874781323
30500,0.24664701630537764,0.23009222409716515,1.2282374861627452,0.09133156541855714,0.00010566744448313737,0.039477389769175156
30600,0.4379749089080297,0.2327485090793369,1.0947186026549542,0.05040624275632291,0.051076952883723464,0.008825769507060922
30700,0.35343454088762427,0.18104449521753976,1.040087814123206,0.021095047089810793,0.09577054269272642,0.01788179338381355
30800,0.4065419881209449,0.46447859304899586,0.8959948221481535,0.04700772058382641,0.09766642242055212,0.05105869958929177
30900,0.4494694751787418,0.13484279448695066,1.0197947215984726,0.0891248028816608,0.074273520126566,0.0666292226128992
31000,0.20490513294870985,0.4088065871188523,1.023959776467886,0.03321763362620144,0.025456921842765726,0.021461559950166777
31100,0.33830281860703115,0.5947503741255372,1.253114605356,0.03439764412876709,0.058154903752062385,0.024862280628687283
31200,0.2518444758387848,0.27999284469943353,1.1853746805205616,0.07014215872990696,0.018967119759429874,0.08973141445790943
31300,0.23093516557021207,0.3952273578447366,0.803010814308392,0.025560505752239893,0.06902929916471552,0.013752220353782197
31400,0.5162570503706589,0.34495300432944964,0.8367820752162167,0.07511923342347765,0.03829713378211698,0.004487890229223058
31500,0.5914756766314606,0.533916271557424,0.9858423967356351,0.07035378405050222,0.0457486465160381,0.03356707060875306
31600,0.5197509498975899,0.5765467644831234,1.029925940914357,0.08065541732971322,0.05127107344806266,0.04092948960125306
31700,0.5467263835084146,0.3806495541773527,0.8541120330028896,0.07508896389316558,0.024727095251877353,0.008175092768584958
31800,0.5135824545332057,0.44088754806599395,1.126893046650351,0.03938491604998865,0.002473785672279938,0.06577582974315749
31900,0.3267726295291351,0.24147746934257772,1.2716079222509211,0.07048302264151969,0.051920215277772234,0.0119830676965638
32000,0.10718853646179785,0.19655467934914636,0.8386237154226934,0.01144258953615267,0.06824426606105387,0.022929825583786367
32100,0.18415457495071927,0.273108931837598,0.9302411366407674,0.08109409722128665,0.05229497590359198,0.006530196917549392
32200,0.37107250526428925,0.38755899280195927,1.1753686326968458,0.02063665272693407,0.08373133539521635,0.018432116952801003
32300,0.28517093263783855,0.2125830437723281,0.8070107893131422,0.04544898835270011,0.03228987451841033,0.024378316711727455
32400,0.3924451987294453,0.563269562065142,0.8358116715937867,0.035755276350521496,0.07439426562285623,0.035645400134924676
32500,0.21082808413288903,0.3543120007123971,1.1943621353216678,0.06759818268225631,0.051356643071712366,0.0863544890713285
32600,0.31070161806885954,0.5750845616261235,0.9828023719035897,0.09187715313237811,0.008302566738431817,0.06411560926145382
32700,0.11991523640248156,0.5809398695043106,1.0972703931188745,0.06946307014950474,0.019984735825974764,0.013334473304381634
32800,0.11887167518620331,0.5293726506805095,1.0675556621657851,0.07784516523438684,0.0854900281905723,0.08744149597336022
32900,0.3109368875089381,0.17207182785701367,1.0215403640376168,0.08781070326464765,0.08463459495385715,0.00838309587081334
33000,0.4495725734938264,0.5932144836521683,1.180197214102941,0.05658043241756899,0.03594723260977176,0.020005236120999883
33100,0.1964535037336185,0.5179646844676049,1.1045478355604448,0.06449154457671166,0.008916634385996115,0.06504467461064295
33200,0.41414465142972134,0.43247146558301497,1.1535603666664267,0.055928594172792494,0.009940168582443365,0.057167590363706444
33300,0.1769310838576635,0.22665042352232603,0.9787005461177164,0.07135527089479908,0.003416527938380232,0.05733430272914656
33400,0.20297116666306322,0.39150209081874854,1.1388178985355635,0.040982997153990224,0.028981399825937393,0.09715264012740737
33500,0.45297470049270694,0.5932239697445051,1.2346113638339313,0.029492061528828464,0.045094763971119625,0.09593827700566569
33600,0.25510139045519475,0.28624851837291954,1.2617080127269258,0.009535272713412524,0.02124433918039407,0.01626533554474683
33700,0.2728941999115554,0.42610365817960094,1.1931809309580388,0.09480677747366784,0.02516403521266074,0.098446505907009
33800,0.26412371853940697,0.1488800391992615,1.0560845507558922,0.009497615860172382,0.07928073916812571,0.003763956288976167
33900,0.38110264472813493,0.4453316341239124,0.8022579977030985,0.09982236935095351,0.06554525607649558,0.030484541460507476
34000,0.3429413659709408,0.4958801082000437,0.9903873171552329,0.03892816823724163,0.009130588795060913,0.0905054396321646
34100,0.4140296805275019,0.12705917497470873,0.892631674375825,0.09357328646262335,0.055377382749699534,0.005963057063643207
34200,0.43835961634597476,0.2786244749827427,1.2504270811032652,0.03583410722131635,0.055650159274862415,0.020691464005548423
34300,0.335671898985375,0.3599033482196261,1.2007186353362185,0.04370248127466717,0.08676068254783714,0.09640662905948325
34400,0.5792556288675597,0.4695470603687295,0.9429025006953881,0.0007839928049625522,0.09962399247657026,0.07727065588043949
34500,0.34485706366006574,0.24294884723014323,1.1572647446070548,0.050224143104535615,0.008929817571075338,0.09415651673965485
34600,0.39277510557714423,0.22601953000477162,0.9026489325635714,0.00526585996373552,0.07153431126044871,0.08556494759134281
34700,0.4463324617410067,0.4033748322343841,1.0339825382695238,0.0884248325128444,0.060054163439131815,0.026800810910209083
34800,0.4388036575529173,0.21785085515154343,1.1745307813212786,0.06805548512088788,0.0520244071935769,0.0952124489330781
34900,0.37542757912979574,0.4772534562891715,1.154080192785349,0.08655589483548004,0.009611881552586144,0.018651571134294154
35000,3.202025286749155,2.306049858253923,3.1645396595401714,0.08840104172342657,0.04533275650557859,0.0595346109264556
35100,0.22606799962355048,0.43660016909636457,0.8615706410657621,0.044455795394546874,0.013249443329753065,0.044250944350870895
35200,0.4919901549955199,0.5003203782246184,0.818036149139276,0.059045847969616094,0.061802690824980626,0.056607397431161555
35300,0.5457530933889031,0.295717713746089,1.1786457534623942,0.09173654027517475,0.05831188755866643,0.00402946037373636
35400,0.5824185390074609,0.500772691656727,1.0298378641071964,0.012841622470685755,0.021566292362195663,0.001989577144440624
35500,0.41735407944108416,0.3995372251313951,1.1054343413633472,0.03434421943721753,0.03150981264387429,0.028983450734013583
35600,0.3838728001836167,0.5883095574693745,1.2295505315136026,0.02261289172235036,0.06886332511093064,0.06293526540903126
35700,0.3368198683594533,0.2241365411531314,0.9193134225996487,0.08336768321927121,0.030159566056491338,0.01231616753985072
35800,0.5504812695751448,0.40001587274310046,1.2513016317086731,0.030235224714400512,0.03012094048745008,0.05335033114696641
35900,0.27042855008473454,0.2688872685886011,1.0973228792190337,0.03631281806496487,0.045554364404566144,0.0066105677801655775
36000,0.3239785527063528,0.2535276835467114,1.0011305335970193,0.01639710215206691,0.07619673158495577,0.007799343396525649
36100,0.2998343666553981,0.43064013401845924,1.1011637451983884,0.05387665157483599,0.07919879174203602,0.08042893315777484
36200,0.3796685616691,0.544806094898022,1.110145735395078,0.0012160749770252722,0.05813067202623016,0.058738097542015644
36300,0.3174665697579351,0.39036546206224176,1.2038889701507822,0.018083574367820078,0.09412229525967898,0.021963179924120058
36400,0.32296002953956704,0.2613768585710956,0.8956003804337549,0.00935920257887939,0.03963327490227223,0.037818212676620735
36500,0.3365113383047512,0.2378362502718466,1.255482758371261,0.041638836048822826,0.0855465432036901,0.0032644124070642655
36600,0.5399658185140849,0.30391127353852443,1.0916880309185888,0.01613969040885013,0.04157882302978533,0.08840559299262982
36700,0.5506523831659446,0.5611316551971909,1.0001083006356888,0.06685775194071543,0.07764358043670111,0.0010727665302776468
36800,0.2774307195051047,0.26520981203791305,1.2888411693157429,0.059265845419218116,0.08005096565248802,0.00039109794499517795
36900,0.3461905562385842,0.5935425891652982,1.0640719826193914,0.005292874060984554,0.0014556736205226018,0.024889399000194157
37000,0.5959078856856,0.23992260851308303,1.2137084859670353,0.07855804877804183,0.08196146993684006,0.09297689704757704
37100,0.45984062423704275,0.16190811787775658,1.0326550148471938,0.05572511745920764,0.09120126925930125,0.015026334395327402
37200,0.5686664164431342,0.46994228323483234,1.048526691077461,0.07300637832227254,0.03793864783145842,0.01809520389473748
37300,0.5451385211570647,0.40448450501934596,0.8127450363605597,0.05051245808136273,0.019513370353235915,0.05613284067151875
37400,0.49456498787151326,0.2685114960917361,1.0784158145868332,0.09241071587312116,0.039710091372854694,0.0826521161826207
37500,0.1455930486250183,0.37108341925718513,1.1922928654019693,0.03250345481168883,0.031834502511693875,0.035649158901417455
37600,0.15750786424637267,0.12398822510657928,1.1173117063822589,0.007000388881893616,0.017044893263997652,0.014259227897717065
37700,0.2987634063490874,0.32706974512052944,1.1944716363179417,0.03602719171174517,0.004752336963463333,0.061693569685502395
37800,0.34415785455407133,0.48333941919384293,1.1894484315377067,0.049222106670880374,0.033630493125504916,0.08355845158093442
37900,0.28335734447835426,0.4280796349659929,1.266231456522003,0.06491539179469394,0.02740292166681323,0.007983616465872001
38000,0.2874945931032995,0.1674967097189979,0.9480493460714924,0.08442791921394206,0.07579846893826797,0.03103114815619449
38100,0.250202909109273,0.37547006150472273,0.9267716893641841,0.05204510213128946,0.0278071088717746,0.012951470658594
38200,0.47509417350358185,0.4428605954813626,1.122238500539269,0.09170707517769783,0.010314223914089605,0.06891824756730934
38300,0.135230723701341,0.1971606577906432,0.8992156356605185,0.07851449536495991,0.05189122710133553,0.053222757277600834
38400,0.3839012635459855,0.3087744499988213,1.06388662612085,0.0038547257999158036,0.08199294201565588,0.03783803693535649
38500,0.43601085494647474,0.37970622605716764,0.9072013893283434,0.0017525098336762413,0.06326096420413521,0.03205725721512955
38600,0.26652658196440904,0.34323320490567655,0.8313025571349477,0.03888259782949029,0.02037832856303805,0.08267335753593323
38700,0.2774345378856744,0.26487733977517003,1.1146221022432594,0.08261962433131326,0.0419213115270895,0.0852162056074708
38800,0.505871479748311,0.13846879334277787,1.2102797079353562,0.02473287982185244,0.0779799281572165,0.0380053719335993
38900,0.16535857786199196,0.52231368553313,1.2647846907898976,0.007404686169233077,0.018136154306627017,0.035085089538900126
39000,0.3412945561804016,0.5853072849178409,0.9854560392638599,0.05942838529332454,0.0022560045330069834,0.09935891605029223
39100,0.20176896469276137,0.5027431125358167,1.2938241705069649,0.08002001679028037,0.013215806688039823,0.06043075039595726
39200,0.3521654126822905,0.24179621921217945,0.815410719685972,0.03149060711862365,0.007542435194647302,0.08521876825115893
39300,0.4391387620880347,0.5856761779859778,1.123527972841655,0.08107528298718,0.022633469868295644,0.08247595515846354
39400,0.5446198184934433,0.39553147589968285,0.904288795453392,0.019773859871278124,0.007723786821098933,0.09603648414694888
39500,0.3652999105135868,0.5666254389635766,1.208237070132168,0.026691075951519674,0.06406486499653295,0.09765295945939645
39600,0.11575950287929423,0.5674868867847059,0.8351394782656574,0.05681626613360206,0.053302012620179876,0.08381648561473189
39700,0.10914497103757434,0.18206936476240568,0.9454456167648049,0.04690787134879076,0.09460098225820479,0.09508454384255313
39800,0.39226042494643354,0.2395323319567554,1.178733247638196,0.0695657693878321,0.009368292985071204,0.004021472722728192
39900,0.38308499430078646,0.2370126380715706,0.9200383799403509,0.0687862823866593,0.0732504945017091,0.0009106957750288137
40000,0.47894502996273836,0.4276684399102809,1.1308492235452037,0.01999355941900466,0.09266278459270076,0.01373138795636194
40100,0.23653980021037427,0.3287030086491506,1.0808473319175578,0.04711803689638283,0.00978176523723946,0.07374822438090246
40200,0.5147489255507219,0.32902802642896334,1.257021429264746,0.02317613417136807,0.039147715214741245,0.06799655347041901
40300,0.2701088519901521,0.5418872455571627,1.1360748656325317,0.09635965314137279,0.09587347617734156,0.07920551671048248
40400,0.3014178694386974,0.151191742790758,1.2454307137459444,0.050249684443046984,0.01084871712854898,0.08458650019848593
40500,0.5132600360564307,0.31214460890948015,1.2500044033445867,0.0055929520728762675,0.0628373646832641,0.051743936689794726
40600,0.3735450553843901,0.5084019762768088,0.920810221403725,0.05178249614038515,0.003164063498007042,0.013399733530026315
40700,0.20700416576195632,0.593646795842271,1.2544383597281115,0.039330398905811,0.021278564866274097,0.08437674546245594
40800,0.11576415155460709,0.5946811153589182,0.855271604539074,0.027814882545357113,0.08181565369475569,0.006140403073256695
40900,0.1583318291823698,0.5629466706033476,1.0765318568733857,0.0728789950341371,0.095076192570063,0.09402964991588277
41000,0.16732812359807234,0.14087027439571873,1.1127267590776468,0.06769972122788195,0.05010178715606165,0.07673219591531655
41100,0.12781041737448764,0.46769885288761714,1.2522848960501511,0.04400218150906539,0.0031215765005454424,0.013425831340575001
41200,0.5014224200519329,0.16219455008240188,1.1736435142230286,0.0680285583027632,0.08472290680021928,0.02768945586977625
41300,0.5384656571887305,0.1517788012740143,1.1053162734797923,0.07505386347710062,0.015013257231176969,0.009026680114446295
41400,0.29156678781410095,0.2938931147078713,0.9791469834814986,0.0035336487819737084,0.04341239914819439,0.08530435386174406
41500,0.5353685635601085,0.5614721563551213,0.88295594983325,0.09865619434570103,0.06524066638512371,0.028178264314156178
41600,0.4092136519573436,0.26856610851347407,1.1058230815813992,0.040383599682149024,0.052092794747890685,0.07447178351958726
41700,0.5985929134719065,0.32952257725395884,0.9596703972522218,0.09412290131170196,0.060585687850394504,0.023225979212592753
41800,0.5823481999358037,0.4761053353818031,0.851588525061987,0.025183825311695607,0.08684906423465244,0.04348843767122912
41900,0.48132589213859056,0.40980796762457716,0.9222799355199646,0.0718234297620628,0.030494368274291018,0.03249023652161849
42000,0.38067288067565974,0.5047630991988674,0.8244298418668856,0.007220589460147742,0.018607724247045456,0.007744723073176241
42100,0.23074878220119102,0.3044869217624153,1.2950990368678483,0.07319323359483562,0.013409212461814257,0.0432334540332299
42200,0.3573601075165357,0.5990217468874636,1.0580509532000448,0.03868731165318123,0.0027899693233760406,0.011851633756417613
42300,0.2850468787472351,0.26961095479817276,0.8885080865242951,0.07563345800338911,0.08206322011405755,0.07352078861620905
42400,0.5872231422983589,0.5214326134257729,1.2897168354179023,0.04756907421798715,0.00939085293022628,0.009060159665713375
42500,0.2252893960944596,0.25000835903724994,1.045065836247295,0.08272277140256962,0.09254144944157035,0.07577124728377842
42600,0.17296205477212986,0.44253119962171494,1.1229204816557559,0.021688845045105244,0.01371961237989111,0.04495745872272532
42700,0.29423169803567895,0.5727488939208221,1.2427303589209624,0.060809857019213986,0.04992547787619919,0.01838340288056455
42800,0.2557879132405271,0.11731465793948395,1.1778466239643797,0.09407392037354124,0.01407292040532785,0.03465930699978805
42900,0.13523044360567302,0.3145450028153217,1.0542798545367322,0.06798311415243889,0.08100384440048802,0.048321809406316474
43000,0.39588850248536533,0.25576138101275525,1.2783303572493345,0.00507371195816787,0.019596295551302635,0.06211097320048451
43100,0.3900802692165516,0.5371880019273836,1.0867200615580326,0.08619307302762615,0.04282632742151418,0.03533010419377338
43200,0.44993613689522094,0.18006358713798506,1.1859156737932937,0.09538355922819132,0.014937967798520357,0.016883018785670414
43300,0.3910912071821975,0.35846136036188503,1.1019967576474847,0.02943292476714129,0.0077213958999214904,0.023437695471772213
43400,0.11189751177435611,0.5405551371164606,1.077656201400925,0.047304082375327544,0.05235258361792016,0.021511755109205912
43500,0.30557971458738,0.13349068633196057,0.9339152539855665,0.09154298395849234,0.04816857911713482,0.08879829874639458
43600,0.4685571825129691,0.5863978099675439,1.162320777701821,0.06526936877896515,0.09064214808654482,0.0936011652633022
43700,0.2798594762862048,0.24913253637903096,1.13194002981996,0.08047855423764105,0.0608503271123669,0.09084348051198987
43800,0.13495593266110248,0.5544708957329669,1.0434981960575853,0.04358460882466541,0.07295311987647649,0.09102728278244843
43900,0.41048814143637224,0.4144034811005407,1.2032707550834467,0.010837357532661374,0.062392638319679034,0.04859408085352246
44000,0.1905478935812461,0.35943970705586414,1.0472435226126913,0.0395201651798072,0.012888198450124589,0.017441784403894444
44100,0.36427530960132515,0.404354493924166,1.2244001027981124,0.00428191068265682,0.0028063361115169827,0.013825894408699158
44200,0.5606176640396067,0.30021602182182305,0.9045120384771681,0.09230525834295096,0.07911863403482405,0.09704432579911708
44300,0.20228515664071142,0.32835512664939803,1.0611421705271362,0.046502476261114215,0.060368960232424045,0.03863495367358676
44400,0.3119377642088468,0.19065493772058548,0.8507291260435484,0.08456625120036879,0.04152491274801447,0.060799631298993274
44500,0.4954060922020823,0.3545119985703312,0.8246648278906932,0.007506686903605353,0.04255024209123494,0.027674753142850707
44600,0.25435031287800836,0.42599390309490603,0.8861932516848767,0.022863314403216928,0.02926047895716717,0.06871322770058401
44700,0.19521032359785648,0.2776491363907877,0.9426501110796763,0.00827525909849669,0.08021663678626856,0.09257789382654714
44800,0.45294042908079335,0.4273343960244499,0.8852887257142523,0.003337738599984397,0.09277058883550898,0.05086352857907181
44900,0.30411904173019644,0.5757058131477221,1.29873986531354,0.0926475038530402,0.06450879216039172,0.03333772803493603
45000,3.1863304500773415,2.4840597697671902,3.1039835876031963,0.08928137876778425,0.09464080931582686,0.007474717397920961
45100,0.5797020000648149,0.5348738320256042,1.2648670625797989,0.08558577094733522,0.09723861373297965,0.03985390753842828
45200,0.12273807559017733,0.18602662718155757,1.2032863825595626,0.04785160912548652,0.024216801200367257,0.036830064627475866
45300,0.13704441427339112,0.31437084139017013,1.2927925307448733,0.09619717540642667,0.05511782935062094,0.09870254132108724
45400,0.4633663329759954,0.3800311776562756,1.1477808161367662,0.08395694574878139,0.06282407429553526,0.005782451226209496
45500,0.47137776295411427,0.48213529576887126,1.2743751066694045,0.09530524829278487,0.0650665833488045,0.0912829461693972
45600,0.2848313408939067,0.45811798356387523,1.0333258212230154,0.031192458689533964,0.03508917505927124,0.012388214638730211
45700,0.1503885418119412,0.44222746541956626,0.877715073318762,0.07264171840642995,0.032135207732896964,0.07466576030942626
45800,0.5099777639310826,0.4622601580011486,0.974686422108584,0.06112918659830652,0.0032431739557779674,0.04340034017522546
45900,0.17351302813077038,0.13355107701798255,0.9309406247118582,0.01787164455631155,0.026558799013754075,0.04449033787778298
46000,0.22568523638288687,0.2800111813246723,0.8680000154220531,0.05591291891845878,0.00194522272333022,0.04269787275806977
46100,0.25519220361201445,0.21700123909579636,0.8123900006483928,0.01936619841609707,0.07579103263981307,0.0527322109274888
46200,0.436066498247772,0.5408033619323239,0.8195361233171383,0.09667178889028796,0.09496866463160927,0.04299614768983431
46300,0.2029734749031015,0.18860151892533375,0.9200713847310584,0.0902955223786404,0.028138513464216586,0.03292292183085799
46400,0.3257673026873633,0.46152381739168113,1.1490274009544492,0.05977778565144346,0.08274033459327514,0.020959391543457342
46500,0.4268492039605375,0.5056455166189665,1.2071902999890542,0.0649259946035639,0.04027527766047504,0.023297191927794603
46600,0.3008503988692277,0.2841387976556169,0.8178670052467791,0.08684692776770708,0.04164340216231313,0.08797401830732203
46700,0.3620304419317667,0.45565439687819564,0.9036309271569486,0.055818195445911434,0.07233869697671852,0.09054072020084894
46800,0.4614781790029231,0.5642305251477779,0.8474870528011176,0.04365711642038738,0.038335943891105964,0.09205384425242683
46900,0.25349703740069174,0.16179465473200008,1.0259130276346653,0.015022005691741525,0.029471960247711895,0.07030119731264978
47000,0.18818301384584032,0.4027759119803672,1.1608537573799897,0.008647033019007211,0.08807653438974462,0.06262606121949413
47100,0.10931922947241471,0.10307511821524565,0.8889836286940616,0.05776860603789852,0.01533126800965008,0.05900917115303953
47200,0.5435154823411541,0.30404326707003215,0.9161969462617439,0.08224955520575859,0.009376372284016866,6.233730944715798e-05
47300,0.37590288805621774,0.3851116541966676,1.081552987961399,0.0967255787583956,0.01611231168952949,0.04332213082474563
47400,0.3134207353051307,0.2879677946883409,1.1856583837216883,0.04171462442722208,0.023006194848107023,0.09526059812614773
47500,0.2800634183684162,0.2705461240138818,1.1447091711456159,0.06152300277880264,0.07949004016392157,0.09687892188480207
47600,0.5796844957208718,0.5677678384030269,0.8387334441110603,0.05471613392144872,0.01718088308421886,0.06784451098924907
47700,0.47307890356452753,0.5217292691499403,1.1053099616544022,0.09476737717598004,0.07866433095270858,0.004144298780834188
47800,0.21140975667220266,0.20743034118527456,1.1318660855725393,0.03705634212167781,0.020288925260345148,0.08022304318541126
47900,0.5616265860052881,0.1545365251147872,0.9399742405790517,0.09084901161311915,0.005757446889864704,0.0476989962198297
48000,0.3859558547152322,0.19738683539045124,1.0415234852136954,0.08927118410693666,0.016593135812851167,0.0920304368742741
48100,0.38311765919769925,0.12180756987378025,1.1110182629190126,0.018235564216867183,0.02214631546266982,0.05264919660244375
48200,0.2182580188978793,0.22327442734278716,1.084546724880012,0.09952000814646002,0.0184160744275521,0.007047024072063812
48300,0.1911546287113701,0.2558986968796676,0.9801330223255411,0.04785731205753229,0.08153383080033026,0.020011581703969696
48400,0.48472058825385556,0.20905272425638602,1.2428591161406883,0.08812259708435197,0.03211002593376302,0.0727684826341185
48500,0.4631685287676549,0.5348876412185376,0.9430215466331752,0.065242608328279,0.01657503951721615,0.06332103336175976
48600,0.43759559519335933,0.11998437225183892,1.1678976892006028,0.08602004876346836,0.04528246752053951,0.09903109442712625
48700,0.4743489179501823,0.4691526350688586,1.1723576155891702,0.04809000896268361,0.02827903480656512,0.0687264182643684
48800,0.14218869970622935,0.21921739327678655,1.052263910988702,0.059808614584768605,0.08142918413419244,0.0059365276690258595
48900,0.2656750644689737,0.4724919841501872,0.8317895215144626,0.02110916347558377,0.09682886678119935,0.0744350741212396
49000,0.3261896822596524,0.29169636100233665,0.8427842991957788,0.0994775292446532,0.09836181991497608,0.05368293265589358
49100,0.3419586125987567,0.13427684273379473,1.249477672774673,0.09136081811143575,0.04157267662231234,0.08535535897540485
49200,0.17026157153897922,0.5277865902781137,1.0328722584059005,0.08569492480650795,0.06703638913216978,0.04435062692423436
49300,0.24641234191928077,0.5256003961370002,1.0698765013418947,0.056262879754078315,0.07932013406228167,0.029374882266694692
49400,0.1495186260691401,0.2177951972578869,1.0791882531226686,0.0615108402258803,0.08920391855606151,0.0891142628018097
49500,0.4796971241509602,0.17217976897318335,1.226996985496283,0.013015334856427141,0.030714253167240538,0.0033605463723950903
49600,0.3714066471489973,0.264154953831386,1.2992249802637548,0.09952127813908906,0.09252820960249057,0.09477524122957039
49700,0.32792149089058065,0.5917134145702974,0.8138094422079324,0.00744567476924577,0.05123563821733134,0.05467791235932025
49800,0.435229567743295,0.212043175775769,1.2303409434599901,0.07578023903367144,0.0769215455071328,0.04391405741749537
49900,0.19798381176021249,0.4815002492651246,1.0834434251823861,0.027817491166141628,0.02895181539370022,0.008692899100167585
50000,0.15317382716721814,0.24508284019113388,1.122899349984033,0.07250999792025092,0.04291705395187441,0.07311734627796473
50100,0.5215101615192713,0.1158546660517876,1.2937164334222713,0.06554692680054157,0.01768484627785979,0.06069946141742281
50200,0.2592475661969673,0.5056178419428741,1.0421125256354187,0.08387150460866202,0.09291482304870669,0.09466012447172069
50300,0.4184194898936128,0.32299912918758344,1.006245111426892,0.04139534284996224,0.09884801503943158,0.018836667879312343
50400,0.20693861712054432,0.3060327448147667,1.23070917590477,0.02717932361166353,0.020173430543872585,0.07289190332105631
50500,0.44125880794046546,0.5367445484203215,0.8410346208321223,0.04073698611652308,0.0861925704667365,0.045623776631602414
50600,0.2722728924479919,0.5619693751652172,0.8434862012351562,0.09379667693205095,0.04070245007465926,0.07183646075871421
50700,0.5788130210002603,0.34175489432589656,0.9378028335976778,0.07271216167168464,0.02382994076322599,0.030454020692625063
50800,0.5461980479793397,0.35644948076810046,0.881739740189361,0.09452659885102942,0.029160049581508765,0.06122693269635848
50900,0.22229748664847268,0.3084023780548164,1.2284606666310334,0.058310738771512154,0.011546767696891204,0.0850737365718493
51000,0.17163871894237218,0.5602540713115924,0.9168243115001361,0.09446140371745443,0.04727771718452648,0.03583729321783052
51100,0.2048169795342019,0.19510838997421656,0.8049747300004271,0.012671367548310686,0.06897185118706471,0.0399236736938015
51200,0.45533746022848476,0.22384875490485465,0.9118765268541296,0.047314672228423664,0.07126807582275926,0.008064267388835767
51300,0.37120711531388917,0.4977765530548771,1.0621828187106264,0.016266089734543156,0.04916057870918627,0.0011936097081318153
51400,0.35149293987232755,0.22122342808262754,0.8419468570518507,0.03440670394864897,0.03778976517922033,0.04594514453933607
51500,0.10998122064007146,0.5635005132485452,1.2141344078855778,0.084377362186028,0.08993953059473177,0.09806214678278262
51600,0.36972651251992994,0.3292498491410685,1.2646324217163465,0.02005356273870669,0.031248714157129643,0.020635366728953254
51700,0.5026374057172217,0.28740447431102323,1.2046635460062438,0.04932853827192804,0.07140741494324294,0.034177333542277755
51800,0.2614476114658064,0.39698627380162366,1.2800196320580408,0.08723050895513065,0.07500357350838638,0.09775529288681889
51900,0.37659195602077433,0.5585114048307437,0.9132077163185568,0.05601880026634111,0.000347015463419309,0.030191929566616517
52000,0.10939769601325663,0.4878471318622506,0.8708399754860681,0.04294291373024505,0.09761435030609351,0.05618342325130163
52100,0.5970827673101494,0.42204662129482795,0.973746929483855,0.02481406813655144,0.046839291674476424,0.08869445169681604
52200,0.5762366610624474,0.2071197320042061,0.9514731399101135,0.07247025313928607,0.04222419724482066,0.014809123640588097
52300,0.3248133694526455,0.19117552511495514,1.2076060988647956,0.0038683721974906884,0.03532273737489629,0.05669139164476109
52400,0.5911673947033651,0.37191057013894646,1.2855022563758918,0.035177069862739545,0.09637561229753532,0.009688043073119402
52500,0.49076764242113513,0.3635406295096968,1.0849102837335733,0.08965298388567611,0.04977942279100879,0.03142237397605272
52600,0.14272633117495645,0.1147592608251519,0.9474920515300174,0.06149125073719696,0.012758325682378524,0.04830820408704173
52700,0.48950360894427847,0.4694354730341215,1.0372385528206993,0.02716574958589766,0.08297538565795189,0.09934023808360676
52800,0.18220560070108469,0.517617048566985,1.0752886589055426,0.09795332248763527,0.053909053961000555,0.0034348184809203544
52900,0.19627226736242157,0.5787344784058838,0.8382273910867089,0.0018741261165420076,0.06623027060687786,0.07942232939987794
53000,0.1470975904984896,0.3583411785701659,0.8002643570131993,0.0263989018330877,0.011787719675716624,0.06913816319848816
53100,0.3608471632539839,0.10743715529574174,1.2271441784067783,0.08766041763016874,0.05110295008041399,0.003002331454512386
53200,0.468416629620662,0.2830131799670208,1.0235776082129986,0.08389794402617153,0.04679650626334486,0.02736129721461208
53300,0.3977922497491382,0.5406984881013557,1.017733229237437,0.0015129597576976073,0.00881362631514181,0.08582984692822121
53400,0.44170195814745095,0.5599613898300945,1.08217747532741,0.07910651203836529,0.06729580014865873,0.08644234873911805
53500,0.2979057410507825,0.5668985052221464,1.288458552022592,0.08879878164164255,0.017803455398337442,0.07279064763629249
53600,0.3683148886871864,0.49719661691345574,1.1031634305565965,0.06995657493424201,0.02248012017130382,0.08035692523883756
53700,0.48865490338471673,0.5766951027542725,1.2871562875801013,0.06839669377713943,0.03783411355857175,0.07299446817454046
53800,0.2565933643314322,0.3196847660411658,0.9852093864062293,0.047785887832068864,0.035238867807421914,0.0403429478721996
53900,0.3839456530711376,0.17166651181356216,1.277510404596665,0.05413163885712924,0.07937320604416032,0.05184628139932447
54000,0.20330219543216768,0.23758448391842493,1.1079890228813019,0.06287868086816506,0.03815397388999775,0.037898597054477956
54100,0.16896519046937022,0.4296799549398873,0.8199607840228949,0.09103126216269279,0.0342389320536966,0.024454522331031448
54200,0.3945910576512113,0.3702182050023778,0.8130253306019262,0.04322384568823774,0.065985174309163,0.06034043454683379
54300,0.2000011376008262,0.1851197813180763,0.8062332033708645,0.026542247454930168,0.07496445315416551,0.04608457285677728
54400,0.4792909712811032,0.43430742243085485,0.8775130431885827,0.0422471366008793,0.08168839913648733,0.0598483473760392
54500,0.578181792925525,0.3740943397193258,1.111630076235579,0.069526837495711,0.05400710510086424,0.06638880482192978
54600,0.5144833684333107,0.1920744069591486,0.97870235301166,0.06177819619902841,0.04800476137004254,0.028110705962541907
54700,0.23131352844472955,0.1386533094876133,0.9421070607538213,0.05647381632277559,0.011275782735252782,0.008037323190491098
54800,0.4675952432753451,0.45622258078440414,0.8518118385364112,0.04665237458395871,0.037058465316509206,0.05951426379649016
54900,0.5641888499380908,0.5705170401673705,1.2711802566435062,0.06595500434723772,0.0315262414008904,0.08354621325053098
55000,0.29946994600561316,0.1972237093194669,1.0978476725310613,0.020288883186943187,0.08657790430510992,0.0689329611462325
55100,0.10532050243673377,0.5270062018001044,1.0444812040645133,0.052009011452690185,0.05862638724630031,0.07582898921272936
55200,0.5388606376370954,0.3398808048687061,1.1314530335337232,0.049496321961604056,0.016622365075571067,0.00951594679420561
55300,0.46229035394830564,0.2790342823592368,1.1332240898775652,0.020960524486789645,0.04032361224895205,0.09219114377410764
55400,0.13274677406731403,0.2560116951889122,0.8165776307721239,0.08225656546105072,0.07582894254787331,0.010720698939075436
55500,0.31014496915525824,0.5553759285880739,1.2462092995062788,0.004351357924842802,0.08985436014795761,0.04886592972591047
55600,0.34134460394432087,0.14706523341761404,0.8085528062069527,0.09839268695601107,0.009628980885331973,0.010738894562481938
55700,0.16622091158282923,0.4546539962569135,1.2576730067228303,0.04959933637546239,0.006656925580000062,0.045895470811920136
55800,0.11093342540974013,0.36045113870642387,1.2444842511569207,0.027603798420445025,0.014962177191330351,0.09546263696592214
55900,0.4149705794668862,0.16272579003333862,1.1668348988461847,0.0755838827923706,0.05310252424909101,0.08588947304731241
56000,0.5787621811774077,0.2523090601818112,1.1585384029419796,0.05895671947847561,0.08542911579086476,0.018419835145232887
56100,0.35933950411590265,0.32448188747820006,1.062714790155996,0.06206740372550661,0.04538935455424817,0.0034642418851479452
56200,0.33261363270764843,0.5438577401183639,0.8348860177280053,0.05987890047174796,0.0648055636078749,0.04055643942146724
56300,0.5421936262910074,0.11283352527911514,1.2228721919097998,0.07373144211258045,0.04381516308036157,0.003393561871437756
56400,0.4501356768857264,0.5952393717011741,0.8186622605518141,0.04778282264030466,0.022447691168589568,0.07589540203036671
56500,0.13696186937411867,0.19747099412700783,1.001553290115064,0.09019532768497894,0.051893517669036965,0.048437791328891755
56600,0.39057149793687174,0.43459857723012296,0.8994009666010565,0.043914107333789844,0.005840671269030918,0.08294264840115882
56700,0.23063331088775027,0.5509490462610854,1.0948170615175625,0.012262662368598654,0.022795257004130598,0.09243652761216947
56800,0.3655276658008556,0.5530828195482888,1.2801085950779159,0.06268980680372498,0.016235704903923044,0.04806864469676208
56900,0.10669991217254174,0.5036958166161485,0.8687323710957652,0.09448735869083201,0.01946997489405965,0.027890905513013244
57000,0.4376297482484296,0.4326001119790054,1.1206337794262284,0.08046898254443952,0.08855955862038549,0.03990816019152099
57100,0.544741451097513,0.4837547309069016,1.133023063342867,0.02750808472127635,0.08225988792269226,0.07477751164244995
57200,0.5960897112650818,0.4372137784607485,1.1188698089919122,0.007052103819208078,0.049491345454927685,0.012924922141849883
57300,0.2315886158418116,0.2841899606987002,1.1368248780903114,0.009246094001683724,0.09279087249906276,0.06255226140340872
57400,0.4886993339017496,0.3897328051918466,0.8840655296673054,0.05207220551799985,0.0277319106710353,0.010365613521560813
57500,0.540820236336263,0.5434415066541355,0.9120194148112157,0.045920006704153055,0.08931681134254199,0.09722850725844698
57600,0.42766316223445733,0.22191805527230937,1.1448449351426662,0.09454762623422105,0.0700201281292829,0.038584463734725655
57700,0.23032246932521291,0.18945034539643843,1.0340397102372123,0.05731891709592499,0.0007429928485831683,0.07088348090508417
57800,0.4454765796448922,0.1386469829820777,1.233318277366493,0.017055574433053246,0.02714202914496997,0.012039404903438656
57900,0.34050579650940693,0.4253848409086193,1.0892426792627214,0.05439312461461861,0.005100976080850839,0.012044599226926002
58000,0.5498867311160708,0.3745424691735669,1.2103250518969093,0.011165331897580011,0.04790872074688514,0.005009948399717368
58100,0.43411619803893997,0.5779165789009183,1.0137952245816781,0.057595647841413015,0.07099503032202686,0.030317512696860074
58200,0.16455611955608732,0.38289585618382727,1.0836778314686395,0.030019807740166285,0.018245295649025297,0.045232876422180615
58300,0.21614194762699104,0.24990577096423613,1.2473777587743966,0.09258170215065402,0.07658738582582597,0.08677906565239449
58400,0.14180163328815334,0.48104483772963247,0.8492946967127117,0.07111597262702671,0.05371068152890403,0.0802475363375521
58500,0.12192502757695065,0.13220123426805228,1.1010064161445379,0.037404426492906206,0.08943430824823516,0.012464616160464083
58600,0.1479146404362243,0.25295110228687945,0.8728939255913474,0.04810971562755753,0.09572530004243586,0.09743850807224573
58700,0.1283190540991723,0.1660952201541215,1.2184395464599622,0.06027369321296377,0.03477215475813579,0.03119335186072493
58800,0.497768022936497,0.4042481563818474,1.284822342085862,0.07167833117106769,0.08020076142052746,0.09557063326949028
58900,0.24291961286692507,0.10389858850824632,1.0534058684233418,0.09643604194728628,0.055414712946008915,0.035866464380934784
59000,0.2420357371973432,0.5457965929586791,1.133141735503506,0.09634112473084773,0.04190800852530131,0.025220994408395217
59100,0.5933452239044342,0.5314014412799675,1.1586238277480403,0.08561053849700094,0.0072851335528316685,0.09954628880127374
59200,0.5739568471999057,0.3559458786154506,1.1928423964173136,0.06148606686548289,0.07869675233642466,0.03602906260487463
59300,0.16503782510068285,0.36837849546947565,0.9112664059874389,0.05698105242573995,0.08928231040951919,0.02162452751772106
59400,0.5890870029124624,0.37091837707972575,1.111259180341079,0.06184390340497295,0.002839261243985414,0.08640060285224874
59500,0.33167026370804,0.589091438167996,1.0616393559941315,0.029883463289169555,0.017940565043931468,0.08288290574419299
59600,0.440199998454068,0.33874754106280125,1.042845012536989,0.0394378096677677,0.05479667288177429,0.08665458575366194
59700,0.20148504964419914,0.14725822158188032,0.8872595956192584,0.059733361484121186,0.00514128747174859,0.025894996181542552
59800,0.36219694835789973,0.1465682527258995,0.9070057663631934,0.041025706183869276,0.01721710925145589,0.042174857092114784
59900,0.2447860967555053,0.11011755687208,0.9164450005770786,0.003234018966667862,0.0023594579943646554,0.08121599670528444
