t,ax,ay,az,gx,gy,gz
0,10.068066758168088,0.013218903849268538,9.843842755018578,0.1,0.1,0.1
50,0.05420290817656545,0.01372845694593271,9.838877826431597,0.1,0.1,0.1
100,0.030054673003994725,0.024291960346721,9.816701844115554,0.1,0.1,0.1
150,0.043834286166290204,0.07943237233318146,9.893335275412849,0.1,0.1,0.1
200,0.08108459463886336,0.0493308973357815,9.854539428851021,0.1,0.1,0.1
250,0.06769272490872834,0.06399431113542169,9.891995489386106,0.1,0.1,0.1
300,0.012994582849366599,0.05141842253899165,9.873092441259658,0.1,0.1,0.1
350,0.02043457869496179,0.04149652284640143,9.839166112721001,0.1,0.1,0.1
400,0.041643843918197546,0.0304155271770728,9.862059937763437,0.1,0.1,0.1
450,0.09812413816841542,0.009395113483028173,9.892462163607869,0.1,0.1,0.1
500,0.0003378866530030167,0.07005291491875652,9.83762552611091,0.1,0.1,0.1
550,0.025749285463843932,0.09098771761274951,9.845051494108631,0.1,0.1,0.1
600,0.08617066268466995,0.011872879889451194,9.887781805419342,0.1,0.1,0.1
650,0.07836309022399163,0.05354772601524915,9.868837042622555,0.1,0.1,0.1
700,0.0725902529227173,0.06522470412622637,9.895764495330512,0.1,0.1,0.1
750,0.06549525082907082,0.011011387477367341,9.81691948841607,0.1,0.1,0.1
800,0.04330840575938229,0.04454454294714743,9.825004726359676,0.1,0.1,0.1
850,0.009657024984320651,0.04997287309476422,9.83953186370151,0.1,0.1,0.1
900,0.013759493719946737,0.005949166736630551,9.866120240312016,0.1,0.1,0.1
950,0.07181482126100396,0.013285479664577916,9.835433948026164,0.1,0.1,0.1
1000,10.086672629226626,0.03421646682914249,9.867699863665749,0.1,0.1,0.1
1050,0.08734760202686315,0.020523220810273426,9.899956112147475,0.1,0.1,0.1
1100,0.0499887349650324,0.030851942996313997,9.899158773635248,0.1,0.1,0.1
1150,0.05636389681257621,0.0506087758917007,9.860183868866613,0.1,0.1,0.1
1200,0.005072380533305754,0.0907095865087464,9.811791081175441,0.1,0.1,0.1
1250,0.027887871448620583,0.051254483899845986,9.856303804309304,0.1,0.1,0.1
1300,0.09715570947052568,0.09807515578800732,9.867191509773173,0.1,0.1,0.1
1350,0.02866059829377107,0.06608369901910705,9.874975935248028,0.1,0.1,0.1
1400,0.04364110970087157,0.07227083895787145,9.852511720572489,0.1,0.1,0.1
1450,0.08988961417585428,0.03924748629729925,9.808162488314146,0.1,0.1,0.1
1500,0.05490401561217704,0.023208612200805834,9.871427295599439,0.1,0.1,0.1
1550,0.04294581790568347,0.09853534122776164,9.82833275910667,0.1,0.1,0.1
1600,0.048973597521894265,0.053720220244174256,9.812910753963587,0.1,0.1,0.1
1650,0.08174058290938542,0.07523490952582562,9.860650371421832,0.1,0.1,0.1
1700,0.01347491643093659,0.09195826670170032,9.849049432190855,0.1,0.1,0.1
1750,0.04958978226187819,0.0038266314295996363,9.828178216805709,0.1,0.1,0.1
1800,0.08812574915385768,0.01202940946313923,9.83282502076235,0.1,0.1,0.1
1850,0.0962630946647749,0.0012826101982828298,9.875364829613586,0.1,0.1,0.1
1900,0.05366767851107858,0.07324131026479772,9.812960633920452,0.1,0.1,0.1
1950,0.07372771486174605,0.060929409188731125,9.87070744168548,0.1,0.1,0.1
2000,10.087640612445059,0.09533577127835423,9.843788649359453,0.1,0.1,0.1
2050,0.03606595414480881,0.010250717461198334,9.843668344624188,0.1,0.1,0.1
2100,0.011091891003306754,0.03728187993899749,9.820247053170053,0.1,0.1,0.1
2150,0.03562951261963716,0.03643660608601347,9.820835836687058,0.1,0.1,0.1
2200,0.07703174699814176,0.04709951684302408,9.861503785486812,0.1,0.1,0.1
2250,0.02183911522469443,0.09031596332455401,9.836180685224027,0.1,0.1,0.1
2300,0.040326294256196486,0.004316988539957212,9.865847272699812,0.1,0.1,0.1
2350,0.06556125157083222,0.0581529864155979,9.835326834277442,0.1,0.1,0.1
2400,0.05007578588727871,0.029822427422183065,9.898294423369041,0.1,0.1,0.1
2450,0.04781429724424276,0.04529704179624497,9.81924970689121,0.1,0.1,0.1
2500,0.05964353662044665,0.04700249447769296,9.86030272807304,0.1,0.1,0.1
2550,0.01341006525068288,0.08760287283189033,9.89062591395589,0.1,0.1,0.1
2600,0.0566608405322111,0.06573585758490388,9.842334966367673,0.1,0.1,0.1
2650,0.03603879089844746,0.08329829902774187,9.834148652894212,0.1,0.1,0.1
2700,0.05378506070207543,0.07716209186238987,9.8607989208392,0.1,0.1,0.1
2750,0.05058701562933964,0.06664954643136248,9.805016005464745,0.1,0.1,0.1
2800,0.09896706264142872,0.03007235992352435,9.823305309173485,0.1,0.1,0.1
2850,0.06205728070023364,0.09771932566225949,9.845330465823414,0.1,0.1,0.1
2900,0.03420752110168329,0.05704397891469566,9.809654392719219,0.1,0.1,0.1
2950,0.06071085147515566,0.08745992716226812,9.82321485829581,0.1,0.1,0.1
3000,10.07202677985947,0.0737317737391873,9.874713579060638,0.1,0.1,0.1
3050,0.05691252246463527,0.05731128690310225,9.896141811413466,0.1,0.1,0.1
3100,0.08970648200431718,0.054529715004778205,9.807257087483777,0.1,0.1,0.1
3150,0.03117657550883478,0.037139353872113444,9.855609178446354,0.1,0.1,0.1
3200,0.05316617226584286,0.09071756381442958,9.837119820097366,0.1,0.1,0.1
3250,0.012528369043603271,0.03965934541381075,9.898927196139379,0.1,0.1,0.1
3300,0.017174870707602808,0.020741898649188753,9.875963734473455,0.1,0.1,0.1
3350,0.015110070866098625,0.040358259407790024,9.809307945191868,0.1,0.1,0.1
3400,0.024875713423254175,0.08253675177739639,9.874332497509014,0.1,0.1,0.1
3450,0.02966637991143578,0.020389947814443955,9.883071304573402,0.1,0.1,0.1
3500,0.017955023972744722,0.058531320409473946,9.825220607486262,0.1,0.1,0.1
3550,0.09985168437777221,0.028096935089527344,9.847556101483443,0.1,0.1,0.1
3600,0.04094090526949661,0.07985812858908892,9.814904449596021,0.1,0.1,0.1
3650,0.008970764928408882,0.022872605048523634,9.873259046620175,0.1,0.1,0.1
3700,0.026015854294509578,0.03052878767103743,9.843155412147821,0.1,0.1,0.1
3750,0.06602655720343709,0.05710653131045426,9.842540676923914,0.1,0.1,0.1
3800,0.09671017483977319,0.07239411491544837,9.821016905510042,0.1,0.1,0.1
3850,0.02040937311527019,0.09509814083013637,9.847755757084697,0.1,0.1,0.1
3900,0.0952121015319271,0.08524331515465003,9.805217598652073,0.1,0.1,0.1
3950,0.08823535878439981,0.037748175933618615,9.846651195951534,0.1,0.1,0.1
4000,10.031971266763138,0.015496953662480174,9.803701067918354,0.1,0.1,0.1
4050,0.048834439221851184,0.027190663959861763,9.85914644223002,0.1,0.1,0.1
4100,0.0024770270365450323,0.0025088447830316943,9.879367261240597,0.1,0.1,0.1
4150,0.0025292722122243873,0.09340836174408622,9.827304334035357,0.1,0.1,0.1
4200,0.0418574780549297,0.03842970237438747,9.80721985059922,0.1,0.1,0.1
4250,0.09786975920400814,0.06076335422361894,9.897096624684568,0.1,0.1,0.1
4300,0.07622796700847076,0.023306569414635072,9.87605453225576,0.1,0.1,0.1
4350,0.053416061550613875,0.00901540231208563,9.848237715154673,0.1,0.1,0.1
4400,0.0046091382401920455,0.038388484814816215,9.823525873259591,0.1,0.1,0.1
4450,0.009701633333211713,0.09470510060752406,9.864684981506167,0.1,0.1,0.1
4500,0.018171182144776612,0.01421855878598426,9.800418784924144,0.1,0.1,0.1
4550,0.09941436053685967,0.0693010480495068,9.838573987090179,0.1,0.1,0.1
4600,0.001535691085965696,0.05039987201513157,9.87164743999076,0.1,0.1,0.1
4650,0.06373704572347341,0.02393682601807952,9.854986038360888,0.1,0.1,0.1
4700,0.09260572275158672,0.031678662103192215,9.891481818306573,0.1,0.1,0.1
4750,0.03999255947622751,0.04398872660494473,9.888930864759677,0.1,0.1,0.1
4800,0.09437151536335261,0.05480257418229008,9.860895832790268,0.1,0.1,0.1
4850,0.0870708717606813,0.03365963145090665,9.81928069045882,0.1,0.1,0.1
4900,0.029522742717137965,0.09931877978985465,9.825696795327808,0.1,0.1,0.1
4950,0.05322457277115125,0.07706878435963727,9.848489080410614,0.1,0.1,0.1
5000,10.037948436868266,0.06919714582494209,9.816051056872201,0.1,0.1,0.1
5050,0.04168989063526296,0.011706995494725115,9.892967523649324,0.1,0.1,0.1
5100,0.016384049595617633,0.08029267081288238,9.87373572806937,0.1,0.1,0.1
5150,0.04760456131991425,0.005231690087177998,9.827308963056218,0.1,0.1,0.1
5200,0.009091884603479261,0.08508308724331798,9.893466300577295,0.1,0.1,0.1
5250,0.08862820823448586,0.08658161163450086,9.866592503000536,0.1,0.1,0.1
5300,0.08116460512940149,0.08982775539682668,9.815219996412642,0.1,0.1,0.1
5350,0.0602680018744379,0.013361279216316236,9.890075455074987,0.1,0.1,0.1
5400,0.05697468516262433,0.027747696977561666,9.857856240822786,0.1,0.1,0.1
5450,0.007915392152091505,0.07259614722855852,9.889789055506656,0.1,0.1,0.1
5500,0.08145810598970764,0.024287519851654837,9.894002860159741,0.1,0.1,0.1
5550,0.05793876200688375,0.028615368376834684,9.834703394321396,0.1,0.1,0.1
5600,0.030411482765753117,0.061274200820327064,9.882341482780415,0.1,0.1,0.1
5650,0.0622181476047086,0.006273233450418703,9.8273036688698,0.1,0.1,0.1
5700,0.012976050264185579,0.0678385973169172,9.801222132641914,0.1,0.1,0.1
5750,0.02464148731750362,0.0718068222484961,9.894421633625747,0.1,0.1,0.1
5800,0.024994727129809238,0.08490725598146226,9.847209708630146,0.1,0.1,0.1
5850,0.007033612331287554,0.04940399040263378,9.800689879335238,0.1,0.1,0.1
5900,0.0032669002175894635,0.01988367857751481,9.876296709143181,0.1,0.1,0.1
5950,0.05886227170927693,0.06890495940146432,9.842320860031139,0.1,0.1,0.1
6000,10.084898439146391,0.06910178900540857,9.81759214819453,0.1,0.1,0.1
6050,0.07016754101425399,0.05130273410707821,9.839607063700923,0.1,0.1,0.1
6100,0.0559764741893956,0.07917299896581259,9.88955741659625,0.1,0.1,0.1
6150,0.06985835266138161,0.008192786848478595,9.840508327032097,0.1,0.1,0.1
6200,0.08242162873571454,0.04008416812573145,9.858938455263354,0.1,0.1,0.1
6250,0.08389598879909199,0.0055111055789642815,9.829758665233857,0.1,0.1,0.1
6300,0.0665101285732932,0.06179557986504989,9.812393713497725,0.1,0.1,0.1
6350,0.09458072918972509,0.057111570232693656,9.877451325070988,0.1,0.1,0.1
6400,0.03609767997091417,0.0038388654792220313,9.89636591468801,0.1,0.1,0.1
6450,0.09569836649636414,0.0946814129677992,9.81954039021325,0.1,0.1,0.1
6500,0.021035611649513133,0.07209823136788447,9.874483272486593,0.1,0.1,0.1
6550,0.03344865762067585,0.07108715039547601,9.816179950122372,0.1,0.1,0.1
6600,0.0637906484667081,0.04525926030274953,9.835871157434669,0.1,0.1,0.1
6650,0.0945405713962724,0.08633268380962901,9.81157769231475,0.1,0.1,0.1
6700,0.009322857386991424,0.08269325597402871,9.850513635111897,0.1,0.1,0.1
6750,0.09061565582045528,0.06567202907760845,9.857994444398802,0.1,0.1,0.1
6800,0.058774890498900605,0.01708567108393656,9.857039665956389,0.1,0.1,0.1
6850,0.013562565226874747,0.05474310731333955,9.867736666772453,0.1,0.1,0.1
6900,0.023578777879580515,0.04165617909475638,9.82150011182774,0.1,0.1,0.1
6950,0.09146471214769109,0.0401615804937971,9.803053599184684,0.1,0.1,0.1
7000,10.036987164520234,0.03154973487081516,9.886607963692661,0.1,0.1,0.1
7050,0.01568952653285356,0.04674834723876381,9.867118586978254,0.1,0.1,0.1
7100,0.056542600883070504,0.06215970151415245,9.8187752426508,0.1,0.1,0.1
7150,0.08000492940671235,0.08180302250143265,9.860752170190336,0.1,0.1,0.1
7200,0.05241617982519926,0.016834070367590694,9.882351386306041,0.1,0.1,0.1
7250,0.022777240717313553,0.05915027611180799,9.800232080774741,0.1,0.1,0.1
7300,0.003235075020248168,0.09099363591645526,9.811738755464177,0.1,0.1,0.1
7350,0.038464242086725234,0.003065701908262375,9.881192932670343,0.1,0.1,0.1
7400,0.07834348771597116,0.013171727261787593,9.882225381726737,0.1,0.1,0.1
7450,0.03899446956255253,0.011537537686565614,9.881788091455844,0.1,0.1,0.1
7500,0.06804760284339696,0.07324006100294755,9.824779943952295,0.1,0.1,0.1
7550,0.09107250360823219,0.054288516072257924,9.854271354690685,0.1,0.1,0.1
7600,0.0627288909493287,0.049431877704663056,9.804083891014406,0.1,0.1,0.1
7650,0.0926135314658561,0.06608093359012243,9.899011422890576,0.1,0.1,0.1
7700,0.0786595579616329,0.028730632359833586,9.818349090897117,0.1,0.1,0.1
7750,0.06818243558173566,0.09340212172000716,9.817072652279299,0.1,0.1,0.1
7800,0.0013081438279253456,0.07873446172348145,9.877472850374444,0.1,0.1,0.1
7850,0.055261882104531534,0.07204311306528008,9.857077387615641,0.1,0.1,0.1
7900,0.012227839821392694,0.05697607711081906,9.883016611182853,0.1,0.1,0.1
7950,0.07352615997151138,0.027621413017412357,9.856452213595427,0.1,0.1,0.1
8000,10.019008153075099,0.008779544353159353,9.80873153787661,0.1,0.1,0.1
8050,0.07659462249139645,0.02568382216739741,9.810042960572607,0.1,0.1,0.1
8100,0.005549674156802776,0.02826109653295439,9.867777379110233,0.1,0.1,0.1
8150,0.09643917481524034,0.039028694679650804,9.890197231816982,0.1,0.1,0.1
8200,0.09657030976704123,0.05348563540420867,9.855465953375374,0.1,0.1,0.1
8250,0.043163536070377234,0.08661505342228981,9.892105815745712,0.1,0.1,0.1
8300,0.05589344658079326,0.01848380003457113,9.838178426073434,0.1,0.1,0.1
8350,0.08007307975136024,0.03753447932232615,9.89413998934068,0.1,0.1,0.1
8400,0.09373231771316355,0.02816154364666712,9.881632306828353,0.1,0.1,0.1
8450,0.008212482092930629,0.050774749990964554,9.815680334779419,0.1,0.1,0.1
8500,0.05891229362899101,0.04717780187596679,9.884163909739625,0.1,0.1,0.1
8550,0.022522770440322894,0.03230088704854073,9.882467022130129,0.1,0.1,0.1
8600,0.08460428328156973,0.09700308834874047,9.82277795516493,0.1,0.1,0.1
8650,0.030629081621835332,0.020708061242666255,9.865345005956751,0.1,0.1,0.1
8700,0.025286691891366432,0.0988576226344858,9.85068336456465,0.1,0.1,0.1
8750,0.08711825977031439,0.024888481546221797,9.845629016946294,0.1,0.1,0.1
8800,0.09788687083891698,0.06527369472155892,9.80976024033591,0.1,0.1,0.1
8850,0.09429656048028343,0.05084612181947598,9.849551804550641,0.1,0.1,0.1
8900,0.057429167457627564,0.044663990129868575,9.880965865821498,0.1,0.1,0.1
8950,0.050006753172924634,0.04149046961385399,9.825497694034967,0.1,0.1,0.1
9000,10.029128010406001,0.08392251716348391,9.890643467193057,0.1,0.1,0.1
9050,0.03678432692999297,0.05268307775380435,9.800478643625446,0.1,0.1,0.1
9100,0.03849970230788513,0.017808385984487963,9.859016818131845,0.1,0.1,0.1
9150,0.09244345404237565,0.07345106342312861,9.840572829529588,0.1,0.1,0.1
9200,0.008366213876030681,0.023517586273556348,9.869145387548318,0.1,0.1,0.1
9250,0.018084376522557954,0.08137640811142098,9.849355152978012,0.1,0.1,0.1
9300,0.02761404418989182,0.07420113939771338,9.80604331648853,0.1,0.1,0.1
9350,0.034550516522908914,0.09668178531083796,9.813502830641914,0.1,0.1,0.1
9400,0.009278857237019779,0.06263390831148345,9.812815094581593,0.1,0.1,0.1
9450,0.05013884781067436,0.08124968821481555,9.844248114579935,0.1,0.1,0.1
9500,0.012181007567106873,0.038425406868459494,9.870949493931263,0.1,0.1,0.1
9550,0.013225906546611333,0.06163168344503211,9.868962846814625,0.1,0.1,0.1
9600,0.009564702055986953,0.05172776347157215,9.87504352476552,0.1,0.1,0.1
9650,0.04866368404089292,0.08117585861567236,9.844291354228526,0.1,0.1,0.1
9700,0.04878968805033887,0.09605312467990357,9.884718290136629,0.1,0.1,0.1
9750,0.07750191887309646,0.07696216368887691,9.86386144201766,0.1,0.1,0.1
9800,0.001686547506717928,0.03495367562242951,9.849206506235655,0.1,0.1,0.1
9850,0.07318548936899855,0.03538088748417708,9.800571173358815,0.1,0.1,0.1
9900,0.024699566796984398,0.046547760972551734,9.896491458879376,0.1,0.1,0.1
9950,0.03451194497510577,0.09675405796270242,9.879167490820198,0.1,0.1,0.1
