t,ax,ay,az,gx,gy,gz
0,0.21903577197224158,0.5548448319230493,9.918973538532756,0.07856915116263274,0.0024756245596860406,0.09497870865551168
100,0.22746466489389336,0.408427677817098,10.042111424467038,0.06218664832637197,0.09045671577075352,0.03498587940217766
200,0.20186051651392303,0.4244746557511728,9.825711966844224,0.04924513750223091,0.03426116108387152,0.034979741902828675
300,0.236531690860758,0.18029670504940357,9.91929442728045,0.026729297581754033,0.04166134574953755,0.031009948648860333
400,0.1759306628028948,0.5612550789293895,10.269244351260168,0.055201483383750305,0.09992519286184824,0.08187906653518824
500,0.42189005259837997,0.3581731147104441,10.126851677941088,0.054625123095212884,0.06522461760947867,0.0008911544829193208
600,0.4042489822356157,0.17782421566933423,9.808026012997253,0.021969836222190675,0.013473148850793449,0.020080607065357983
700,0.1280162440770207,0.586139221799148,10.18084774075389,0.03390726142105185,0.06463066406062717,0.09897385703088452
800,0.29207286598613735,0.4781558761335474,9.935143596071407,0.056696104744378445,0.08716639291517345,0.02125773945644226
900,0.12588820875034915,0.3969322282047316,10.18616354048126,0.07385885311797856,0.03597028656819556,0.07280928971341148
1000,0.1755464894952702,0.2226827303842802,10.050141155369493,0.043693736313675804,0.09490113831858987,0.08962733948235338
1100,0.2478320191022382,0.5566466538076758,9.954160942253802,0.018507410001746282,0.07558917960526795,0.020704718952050807
1200,0.23005591714723164,0.20500296329151815,10.008166718737149,0.0031929241644525043,0.07133831910966386,0.04934365093289779
1300,0.3782523425541261,0.5023822067055195,9.894077157685922,0.09204007413157393,0.09518682713086546,0.09859817142099803
1400,0.19766445181092532,0.2677807336867992,10.110341167922956,0.0051325371415895,0.08729713349363666,0.03605940753999653
1500,0.4907784490883843,0.10342938936197324,10.208512583443973,0.008963794500095101,0.07321846698355115,0.017581703643759862
1600,0.14714755997571674,0.2203294646721026,10.291315973966178,0.0064271769874048815,0.0018771550271151516,0.08969579806744726
1700,0.14217818733740864,0.3904836487035316,9.882352494188657,0.05052590675251692,0.09231835316349501,0.017540005388589776
1800,0.3393897051046689,0.5431948982377012,10.21054781230966,0.01569248959144266,0.0006631494723007615,0.09773739496461953
1900,0.4550455137241536,0.35525506433215026,10.150212665540991,0.03149464450116829,0.06515291799647256,0.017449449498058912
2000,0.31896199375308953,0.44815610436193076,9.95355447053894,0.012502136683783605,0.09840875440771375,0.03848037762363711
2100,0.5631321017904599,0.34343199183458817,9.98022453827072,0.01373626749289848,0.013395662150913113,0.028392099323435005
2200,0.2455220981271232,0.16336620337846622,9.830807613632118,0.0695973042309777,0.06663525711676199,0.051242855086631456
2300,0.5095323177133999,0.5830220442303582,9.976476488978319,0.058225502119702156,0.09018262789098891,0.028216811551484845
2400,0.46933011722538964,0.2545167483827362,10.149797159227836,0.0014929066441667805,0.04674071092612815,0.04101886142476196
2500,0.2974601181295775,0.27431803315427783,10.16018303728694,0.06751997304780204,0.025236209423289538,0.0034466196124699256
2600,0.11455503472450715,0.3041704768492489,9.974931944021947,0.038283304873368555,0.08259136469933517,0.06527178527407261
2700,0.23013361656899903,0.10036613026821803,9.813351113160303,0.002104344295377003,0.0815470759672387,0.08455597788021692
2800,0.26926563668161896,0.4095887733196736,10.103602502923293,0.045665040655398385,0.057060494477632534,0.09342203787458396
2900,0.501937624735776,0.5342528980013914,9.904510211341181,0.005936439617676104,0.07894253550170396,0.08424931443878492
3000,0.23447958793427123,0.34011197118551206,10.224733540215723,0.03724273428409352,0.08072918100400726,0.0007801085637427985
3100,0.3021662648984337,0.23405886980346638,10.001686245029273,0.0065038454935359875,0.011677443512031194,0.09758176463017058
3200,0.25617716209987307,0.352847442701535,10.040761601701895,0.017075530057289224,0.041745949709071285,0.08410444258592381
3300,0.1886938989066219,0.5614668111895134,9.883926148887381,0.0934384023566378,0.05366865992781542,0.0211821307815416
3400,0.5484933234469831,0.17911009183638618,9.973024191289051,0.0846388268097259,0.09317115496304267,0.06849808334317208
3500,0.28254833937697854,0.21460933684154251,10.009882553145207,0.0006194634639924646,0.01343983469164809,0.0818463804114812
3600,0.1321182378200589,0.5261448712603443,9.91038614449514,0.004761300967728832,0.028454405983796074,0.05771181475719185
3700,0.16011421266890039,0.43079879468368865,10.100781873566046,0.07968874993230546,0.05731318822919253,0.004145122642056809
3800,0.570476426858896,0.3073029404171843,9.851180796554862,0.06376158142350939,0.07612049945202795,0.012132053232066032
3900,0.16977529987572185,0.22270124739385064,10.250657739160507,0.04157532219180532,0.0631654031096187,0.010118031575033416
4000,0.43065500820820923,0.5052688820487682,9.908884298037497,0.04744570784563275,0.02078066202644452,0.07065940636869192
4100,0.4256889988976833,0.4269636810502998,9.848200141746958,0.0455448660000024,0.031522147064905096,0.01568334756448698
4200,0.45164260160761327,0.5442291951544581,9.956547395774013,0.09030691493216521,0.09208269135597635,0.017862538828073427
4300,0.12364266658236225,0.23729126615641957,10.203580061703144,0.019156335788170078,0.011574772376584198,0.032516569433453414
4400,0.48812198221377223,0.33524616819442143,9.976064749155244,0.014722598557327028,0.030776990382710014,0.033472866066524685
4500,0.578721522928119,0.16429088464031735,10.037466481265646,0.010470258725232951,0.031025992291417604,0.004840757816706742
4600,0.2466336899011551,0.4503516366929532,10.190532320353487,0.09402614760369285,0.07419787107890204,0.05253809022479268
4700,0.18801280361589381,0.4878121878371898,10.170599756464693,0.04886966679565652,0.08493379381074044,0.05425821597690536
4800,0.17967448266307376,0.448044214898087,9.835463457453212,0.07981434066484262,0.019147297922461993,0.06481407849894467
4900,0.1984675462992602,0.5604872066770681,9.884821229662547,0.06610545794841377,0.08361675952316742,0.012090961512081123
5000,0.10493959740614497,0.4126360038375595,10.1316430303092,0.08225753234978134,0.0442788605876689,0.040921503142635735
5100,0.3998565423617634,0.5833750992421718,10.220496650612793,0.058124625952308634,0.025403467398523616,0.04583260670095194
5200,0.42350781134842175,0.5900411015109195,10.11123634626251,0.06168233579537813,0.010361294965049672,0.02383280029614898
5300,0.47367349932685865,0.40205655279934904,10.172339305977038,0.07958473268579182,0.05447115622224341,0.08866749564775234
5400,0.26563824765869004,0.19292155238238276,10.231612874288732,0.036798707538038024,0.0541677875341737,0.09906454775006629
5500,0.2941888100499719,0.22549536515342236,10.224598122157376,0.06170773050047221,0.012743255069060233,0.08840004913877186
5600,0.45004991769887503,0.48141252228730314,9.906018301381327,0.060539119507579967,0.007186486720240937,0.0911381149979315
5700,0.5588401566058813,0.3978283069629519,10.098285147202063,0.030752434300269707,0.036064202916029596,0.07016155242071738
5800,0.31222218279182834,0.5578122173749221,9.869817507134536,0.04315531902356404,0.07790911240464111,0.07428953787634432
5900,0.2798436984990046,0.26268207770712515,9.820810373698047,0.0694582987707884,0.010460289553297974,0.028424478127663102
6000,0.17216129725386112,0.48614620816485377,10.020034795134789,0.08593536049522053,0.01616656569926831,0.09994394761643724
6100,0.14970840951291273,0.5719486956222504,9.987612934892216,0.012615121407274322,0.007926016062355656,0.010742944578171232
6200,0.12419008215042418,0.3474942028464699,9.95931907376407,0.03588892915758316,0.016751734478357382,0.09210446950873828
6300,0.15652147342286934,0.5239896090706164,9.990129391440082,0.07593707994805696,0.06475814081633526,0.05549531018876241
6400,0.1995152936972934,0.4030091880293798,10.130897673565853,0.04020205364929728,0.03843532510924128,0.004908074777265004
6500,0.24188792693104208,0.5614481961091744,10.209337344439085,0.014326140608680217,0.01180735012179255,0.02082221842979397
6600,0.2751650333233103,0.5001177900901742,9.861830302668993,0.09617668706594312,0.03782167406978677,0.09103268171730597
6700,0.17109967274005286,0.34459051600034274,10.039272922306013,0.07014263216350901,0.08133691417882849,0.09834899081368101
6800,0.5465554604579207,0.5031148045932323,9.86633047999301,0.09575245425288106,0.09195916202102433,0.09817409485803494
6900,0.5328418231992172,0.564182849165596,10.049024838747222,0.06867822345707868,0.06308361709037212,0.09124461833876957
7000,0.15357143262515358,0.16024498359715492,10.2306906120618,0.055075353546783,0.03389990061117502,0.01696141091308504
7100,0.4060138686427167,0.3284364024208378,10.077210322398775,0.08988310127343682,0.07066531831759419,0.05035756489858905
7200,0.2939651436226187,0.1618164678002649,10.074350002221685,0.022456166286281522,0.08227833732858808,0.026456094613458204
7300,0.44898780550125605,0.582200415420599,9.959454620583164,0.06084823822691791,0.08056234540041401,0.07354804698897058
7400,0.2271113077112438,0.5239155846932435,9.959531926544773,0.03183768612480962,0.09477647972400373,0.0938184716767325
7500,0.2659536506151835,0.20312400235270126,9.840174377329554,0.021165200153709242,0.05704779854809099,0.04612982680488173
7600,0.3586955925369413,0.2835098482712045,9.830535827903475,0.012571416046915718,0.08148187367469387,0.08965818197973895
7700,0.44117412938511147,0.1497265537216325,10.164425510495853,0.027061885889614747,0.06837183620884973,0.081772722966007
7800,0.31562271718377777,0.5962101834224789,10.269702112845062,0.05244292783726606,0.03877815836995775,0.015433884743155225
7900,0.5847878485452539,0.5268273900381899,10.157469571445192,0.027559590925239352,0.04572119167499129,0.051527564727248225
8000,0.5551848320014253,0.5646131357192037,9.873972625749053,0.08450108450690473,0.06915989333610965,0.006621656106304397
8100,0.2045405280049523,0.44676444092667444,10.1409121494179,0.07891202627760187,0.0836484547051959,0.028334674262808692
8200,0.40993622497185156,0.17429953844519,9.812468906534617,0.006312376574422508,0.08890845854233248,0.06803156503466186
8300,0.31359392284945875,0.33769117703939433,10.01838174399387,0.020828148941046135,0.07763760814393361,0.06137014951769313
8400,0.2940225531352887,0.5710616068211504,10.286045717325248,0.05879958614332961,0.006402138461390528,0.04537952954813721
8500,0.5166334214100419,0.11355564534521337,10.285732993814277,0.07436869555526272,0.09243455984360514,0.03587520514595296
8600,0.5490960042052337,0.3354957038861276,10.160117639703433,0.06765069211042513,0.07114733068516914,6.716889774358581e-05
8700,0.21714483649550412,0.5428977376299848,10.007927773887513,0.07600701384180017,0.07285561412703809,0.0953515008501665
8800,0.38264891246214494,0.28594995952568214,9.803530072312801,0.008495242583582108,0.04500253532105043,0.046647222213443446
8900,0.5780373463147446,0.5831824109791393,10.073075905983522,0.041399116434485385,0.08348272519280385,0.0383508173736391
9000,0.38473884932648195,0.13619584097706708,10.244851307959692,0.04414203904898113,0.09875685518496308,0.03825839104735579
9100,0.5819340612362123,0.366919505562457,9.857180636222417,0.06776534450228615,0.0021527554589167,0.008933529946391306
9200,0.5732337536911319,0.4792810434579373,10.270905692725538,0.06887455230659732,0.09294139363621513,0.0684673412781786
9300,0.20953060936112675,0.3854867740180614,10.011924642095234,0.04759229078063516,0.07360766526095919,0.01335076167752064
9400,0.3958896875075688,0.58804406261848,10.145344214917682,0.0163465377917574,0.042168609062730324,0.011277737655487386
9500,0.4703979294111138,0.2626065499788909,9.922417949592298,0.09742850983025936,0.010239651093079716,0.008031400684877588
9600,0.30207556070782127,0.45696076176266887,10.1908459702976,0.07026129936736263,0.0006451469830153767,0.03779731432657575
9700,0.1696348242207015,0.5084030564012322,10.187409587792464,0.006467122887636257,0.06365235893885342,0.0468260189612896
9800,0.13595549020350758,0.5596691610776735,10.241758803350889,0.048313791929503636,0.09711091674628486,0.04571794189032247
9900,0.3806702709491272,0.2751972333302416,9.958217842908574,0.006252369083544962,0.0599623455295378,0.019032727399281815
10000,0.160720147003054,0.5113595733345592,9.93274019552374,0.07459953473698165,0.08165956368072838,0.08769390509480664
10100,0.42793934689481083,0.4352459383586117,9.901524698602936,0.06083852386939194,0.021288573964962466,0.06237305442531325
10200,0.5024983756969608,0.2926099410639116,9.859002536015925,0.09765752617416958,0.04399520471793681,0.04847469963445725
10300,0.3477748843867349,0.19198941779487447,9.827789641732387,0.0809459500365768,0.025217632238181232,0.07494206062271087
10400,0.4286589649723477,0.3474720725004077,10.113673249971649,0.03944284267481755,0.01982849751738182,0.0740494688374311
10500,0.3842759084301538,0.17550199628469873,10.290002616346476,0.027015304030036803,0.0033787228995359577,0.02548043656705884
10600,0.27375026303290206,0.4580527381415681,10.164837846075978,0.010064660063720489,0.044303396090211306,0.06848583761462285
10700,0.38254442656954357,0.25518504298081046,10.238091190955792,0.08932710657361362,0.035776970729237516,0.0786488903339039
10800,0.40104182392460186,0.21562280470336145,9.871066892418238,0.008834914595491673,0.05577687426507867,0.004179433328498072
10900,0.5382322734558846,0.12535805440151868,9.988388111227632,0.023503830094525446,0.09071473463919535,0.07346721951467645
11000,0.12161495671096337,0.5177352824967928,10.23025944214563,0.06379937790166064,0.010142167717652495,0.07135284022383043
11100,0.4010630112440675,0.1423555118117246,10.009262091002318,0.03635090933654318,0.004631783404761592,0.047505475489599415
11200,0.5837940125896508,0.45207152975207854,9.943497393614603,0.06368211051184952,0.07502987397199126,0.04423400464739672
11300,0.41739421418702816,0.5881062963415206,10.172323551003002,0.012287092717407667,0.0756836646918793,0.06171247794161422
11400,0.47281723207819326,0.36333908762143885,10.132097724832793,0.034002464274905664,0.08850822271927214,0.036094121429485725
11500,0.3495151059555329,0.4213553665077495,10.173869913243097,0.08251595247844407,0.011311922416292475,0.03181784606512764
11600,0.4705225431787968,0.597289176225007,9.816984871478148,0.010219017050654434,0.06975339063756995,0.06334921041963114
11700,0.4460775603821252,0.2511464667906709,9.991833102795253,0.013964754963840642,0.05185513440910412,0.027400772465544412
11800,0.2959241904673079,0.15382139974282497,10.262297681959625,0.08670910962945441,0.051108659788197466,0.01796342382437074
11900,0.17593511266606157,0.3335647030403742,9.8252159549363,0.036969645744151215,0.06974463530771385,0.09418312999890448
12000,0.3941138523227319,0.3729950334891823,9.946947212814454,0.018329878549834977,0.005161752144418452,0.09970408236381713
12100,0.3984684831351649,0.17553846183239666,10.252075029030104,0.04408269932231001,0.09481937726124474,0.08723687300042154
12200,0.4298452650054896,0.5705769160917538,10.071501351566516,0.01999016519722621,0.077914160213106,0.009096847901205508
12300,0.29618201824570467,0.4745130941747534,9.825697467755946,0.032684563092702394,0.010954024352171266,0.002136525300923031
12400,0.5353385659977976,0.46647186319100764,9.988341068665727,0.017638615583511843,0.03163747073884813,0.04411664952442373
12500,0.33760677914309645,0.10319756837128993,10.01450326643685,0.0698934091885751,0.09297460576861183,0.03764343708161755
12600,0.17197119509163986,0.5993957646881274,10.134894495552684,0.028255576738430477,0.044159491097019735,0.09182208715486062
12700,0.5583040496348969,0.22252214904353615,9.950834177602786,0.08065786417946273,0.06557647408416883,0.026489348062489607
12800,0.4299604205055608,0.2099191914850115,9.857852824446644,0.0008278012812264258,0.09645635006524747,0.06158803383188427
12900,0.4023221824219235,0.16071635113161695,10.175652394423928,0.034848360086420796,0.07187342046877745,0.028160033909851057
13000,0.1461500087822374,0.1656285242523979,9.960513809791118,0.060361915141310264,0.06954403556625079,0.022302375832101498
13100,0.3942079842993511,0.31921227862327795,10.048735584649217,0.06947438839558061,0.08762169801998827,0.06187588276001998
13200,0.4627966984605074,0.23272659217460698,9.903162962141169,0.06445340344389026,0.06661152594126969,0.07542972814081328
13300,0.15491043116090467,0.3404197791586546,9.801849215867215,0.0936846942412023,0.03248946690874217,0.03436821220357472
13400,0.213386226464474,0.36949771434283396,9.891328229211194,0.01462047526907524,0.0997408735380656,0.02138669071611701
13500,0.2448787741377356,0.2279333953136278,9.810759460106826,0.07683876391800158,0.013005729282873114,0.06073017531956945
13600,0.22795227484329175,0.20468683892896247,9.9712197045745,0.06075919026868355,0.03451934528098407,0.04279008944557038
13700,0.31244161359719314,0.19856389344328698,9.969126236525018,0.0723326390480271,0.00566084502384151,0.035703325710336554
13800,0.39503047179363715,0.32648613338795696,10.16690086495553,0.04167194459436642,0.015055649493461899,0.040399755027501774
13900,0.3959489810313306,0.1506686175072837,10.007740257156932,0.08190098869602003,0.07102725504332941,0.022829095644286004
14000,0.1675537472511878,0.32231429537768064,10.149563876503363,0.07779911185533071,0.035642980704050364,0.0898653235029784
14100,0.5619623741131428,0.5013504672229601,9.996803756386361,0.09935984230975733,0.008903624760571783,0.07391242395540686
14200,0.27530070311961585,0.40866272516486923,10.151337809637182,0.02646793244641952,0.060286579053883876,0.06283931751197934
14300,0.3746782310787744,0.4078248240168799,10.263954579179572,0.046117533629957165,0.07944886691971058,0.07611580101841832
14400,0.39744631785650986,0.5473352517553434,10.051718606624,0.09245367582332983,0.03929420936266879,0.07654394473897856
14500,0.32181563699930316,0.2798585597989295,10.275823424774137,0.043581154986086494,0.09494750885655148,0.02706342757891186
14600,0.2133778650316259,0.5623806996064286,10.232524654317151,0.018700214444631137,0.031116880346996136,0.0493277240547143
14700,0.25081923407757345,0.361938950315966,10.27268147335123,0.030352043125206698,0.007341090236024895,0.007038308536454041
14800,0.3973955343408644,0.25407455659488354,9.983033432280667,0.07898324716920793,0.037480255849685194,0.08366509976829561
14900,0.19061200608908338,0.14254147483391835,9.981248269597723,0.09329987304143623,0.02377653160340837,0.07562085162881843
15000,0.21084066283574968,0.2023737375307437,9.870538749592551,0.018500124384825203,0.041907796462235226,0.009877818991916677
15100,0.49028574540278025,0.5193109107996245,9.966980164128667,0.023123441628203678,0.03818728871323799,0.07120387787975042
15200,0.17951326053311897,0.3575258903771934,9.8628284887095,0.04658291808337994,0.05675277037922352,0.0983829928001986
15300,0.31120949363606,0.47842612547520225,10.249038384012845,0.04411231245532583,0.04466363816650404,0.08049769163575088
15400,0.48102939978189385,0.2378318018024699,9.909339723482931,0.09575881399806829,0.005380938219478904,0.01655776707097134
15500,0.15270143233231578,0.4071449242291948,10.042014402071548,0.0009112619935976119,0.010417455813174027,0.01677865787545374
15600,0.18731131599493897,0.4412954925525038,10.248790981265635,0.029118282908066763,0.06976582746618924,0.049867214485395765
15700,0.3249833939780139,0.573221923748261,10.266387907292778,0.055756112561864093,0.004080776200095471,0.029645580105147964
15800,0.49398025965545567,0.17033082410260533,10.265837601039305,0.08975015232814662,0.03619731985784781,0.023157983164366937
15900,0.4499658932699373,0.3526289844478123,9.85057465297813,0.0890316048960232,0.028024348617743347,0.013005698768311669
16000,0.34361023436121163,0.4516283556566668,10.103408418091533,0.017828058123613967,0.0890519093794686,0.06131913006180881
16100,0.42370786456613196,0.2877008144121189,10.186069858185459,0.024915836053285668,0.0008849879961367436,0.028660303643771347
16200,0.4574496576973157,0.33954387650575557,10.197906206700738,0.000869445776223754,0.0027967411751872785,0.04067500986591961
16300,0.1553367394921827,0.46887237094916967,9.970785212436803,0.004757297420322182,0.06807136143946106,0.046154270325782946
16400,0.13174302739044255,0.5721016320340098,9.825809865558215,0.050562745969922156,0.056022412575511264,0.04525594935288313
16500,0.5017051516409563,0.4448975695369133,10.080820784749372,0.01569980178440584,0.033723463932168705,0.06387706578856941
16600,0.30572964112937795,0.3820366355408541,10.007111418863856,0.08910712397092874,0.08794734545560201,0.00464098983268042
16700,0.35539434479997467,0.2902070774410719,10.08324128479302,0.008617719051555039,0.08351898327930522,0.028522533574582655
16800,0.3609110655384602,0.5410532707388611,9.850188525311427,0.05091675363667347,0.0678967509685097,0.015995245906108613
16900,0.11271614584971376,0.11731603603777954,10.078692842061633,0.09604759929062082,0.09044288115860194,0.09361326557715469
17000,0.4449160584170946,0.45022284416409086,9.95866748148651,0.06462275603317029,0.06165795208398699,0.02419428878268535
17100,0.2238517107689774,0.4789131825629245,10.058051475950009,0.06566200592748758,0.012613649503863157,0.06416287063844613
17200,0.2577236826682604,0.4116926731768886,10.06620762380135,0.017986770923514517,0.07826433838845555,0.07218198343334634
17300,0.4076173114109327,0.10730553596254347,10.164188516781723,0.06661278069572443,0.08742329325298179,0.08554494447054005
17400,0.5663217868536099,0.582972858749861,9.937163695127122,0.01077676869309361,0.026732266112707615,0.014930071826945057
17500,0.1355189177888552,0.34641114561358044,10.084017878629393,0.010694720428473414,0.08269533097337425,0.004463592022749452
17600,0.4273343428029579,0.20625636223351587,10.127193409458357,0.0021113342048610264,0.06992773674272966,0.04180075048174103
17700,0.35114950071184414,0.5274827256506399,10.193211477805377,0.008475497145752898,0.07578005694102818,0.02413073433755987
17800,0.24806874832094508,0.1133872751441389,9.952022085359454,0.015169167870482626,0.046122970636493954,0.0013992931872406024
17900,0.3861193742674126,0.4907889584299713,9.839962438005923,0.02922590621532746,0.02625759809216425,0.03181410703658976
18000,0.25486437351363533,0.4811979001873691,10.231993651887903,0.054518241899430865,0.06901269678375159,0.07898655699094477
18100,0.17335620403581212,0.3987813795049505,10.208531130252467,0.030794771944442457,0.020291293522312983,0.05801997120149385
18200,0.30779812939858675,0.48572409081477774,9.858201906613813,0.038980312411644624,0.0573290354639774,0.08729513921606025
18300,0.2156798298884184,0.2801701789682869,10.26448849981866,0.012842367214371509,0.009547106442401344,0.017163535557588604
18400,0.49315473473353066,0.1615966418984672,10.012888602986974,0.012896288620402008,0.03368731663035264,0.07290508726590916
18500,0.16669975547739405,0.5836161787275275,10.261797807198215,0.05495761278752925,0.06726618582416367,0.09800270652862024
18600,0.33767645982819494,0.5429929610277658,9.884922289125418,0.05972433479893302,0.032549948010428834,0.09909977609916963
18700,0.5646696024656365,0.28160212161901554,9.905452038872745,0.0049096106289325155,0.028224048028828087,0.03750250428380967
18800,0.2555704239275215,0.5109317897158013,10.197931781475646,0.08802520464248238,0.06548235388461396,0.0754237725991932
18900,0.3353299748351901,0.4218496501885056,10.260937608914565,0.06788746259965875,0.024260341845552525,0.05301665052237005
19000,0.20020555972859752,0.369806954152179,9.956446109430791,0.06912151980282803,0.06702849650477527,0.0791496444005893
19100,0.49409074500194416,0.20668273208471746,10.099958829004947,0.08262576664304502,0.06036262932664735,0.05908026486578638
19200,0.31963553069350903,0.1584569852540684,10.230327587695422,0.07774572972835597,0.04891494452320684,0.07812619358231038
19300,0.5588810323275935,0.5539340327836316,9.900688474358338,0.0974335954480502,0.06453872865728151,0.05631239532362278
19400,0.5899734835867948,0.1273528075401029,9.825118513174393,0.0936400513943565,0.05428365628576515,0.0590517670007272
19500,0.25871565590212586,0.2293235052297616,10.2585966534607,0.04965258470397477,0.06316421804302798,0.011432316551007293
19600,0.3371841941058391,0.5174842029717824,10.065936130847874,0.08325994010241966,0.09296305297638874,0.09151947747741634
19700,0.4162900110181319,0.5695130399159308,10.220370528202094,0.03385726986064471,0.057909619643862625,0.01279528444160788
19800,0.448303490633279,0.5033371452023314,10.276563054895005,0.004908152446965509,0.014173992210629338,0.03574112635813647
19900,0.1852611372799626,0.2981254392969711,9.808617226875288,0.023388454999891485,0.02356538987578484,0.029155861193156385
20000,0.289802311140573,0.16894538529264494,9.915454533430117,0.0002467783885269248,0.01638396570176386,0.08968227941182559
20100,0.10714787483437152,0.49141251402158714,10.159364159820736,0.041391062152062466,0.000958662794168097,0.002114400188303012
20200,0.34780170641973907,0.34857884046705934,10.099241142014264,0.045269145342125006,0.046781924476613695,0.06163379691359875
20300,0.4938650787256228,0.2522120993932483,10.255538439208863,0.00829831428708111,0.061918120670435006,0.0609285590240984
20400,0.36440808002918545,0.4840259538284619,9.971231968265705,0.04826665263444473,0.010593453649114482,0.08381826315079492
20500,0.587867245088536,0.44902606722470373,10.29601749207272,0.011719668728390243,0.04283597324760363,0.07867077880801365
20600,0.1470713811345248,0.3354749214455842,10.289682322078331,0.03511890295705102,0.056969528595301015,0.07609902314933267
20700,0.24658679722985496,0.12291801172819741,9.808636697763825,0.0022203764559140192,0.03046350376816649,0.08179462513754793
20800,0.28754687407118296,0.5245133558984165,10.123943463545066,0.07029695957230629,0.03941863992861453,0.05323701152823528
20900,0.5661709850121923,0.5783416587020752,10.229343301593252,0.004614469678621358,0.08558150248703073,0.06344102715230333
21000,0.3915003738083551,0.5371650721437664,10.252299486819773,0.0928939300157036,0.04765613530727957,0.010411934981102456
21100,0.23499110171646279,0.5280348395578265,10.14075611478712,0.024421635397393282,0.027362841814150787,0.018480331412794582
21200,0.16107845862387568,0.31180126745219794,9.975048594667554,0.0483225312497103,0.015729711968611948,0.08929078950949648
21300,0.33114150085207084,0.36429399741912405,10.110978379033519,0.06992194458883282,0.053406349478346354,0.042580395223449745
21400,0.13323324356780283,0.38744574203410864,10.082693558774809,0.00397998141162389,0.07429469939289421,0.06468395561815692
21500,0.5483163711733317,0.20643559459408398,10.278727858524922,0.09211300782898375,0.04329886595504748,0.01484887922997471
21600,0.4058986081507301,0.3672741377512895,9.875470997248222,0.004072595573587967,0.06801512388110711,0.0835185467178626
21700,0.5825659497631194,0.5876927263434245,9.859726162474724,0.05368274383537386,0.02045746340158895,0.0807451511138458
21800,0.5220755372774302,0.2387490298830525,10.039196939375008,0.07291915044711743,0.08650065504453636,0.040472603169966176
21900,0.3333762550042746,0.1431224340585278,9.932087721982416,0.08644823249793877,0.047456826025803894,0.08420095519482301
22000,0.36448902063700706,0.4338551020704512,10.042185396057201,0.03740842146508507,0.03368100388647729,0.07025873504764542
22100,0.5149144064682427,0.10436343512354304,9.94917157479634,0.09463779017233226,0.01885197144328804,0.06010439416790824
22200,0.34707465580362773,0.2654924433716268,9.800275379339308,0.03149183323279941,0.05822519575343985,0.0399854060890662
22300,0.5522625625391736,0.20678436432309064,9.918321435892873,0.05474341668950904,0.07726726586786455,0.08664632020520441
22400,0.5399581902453742,0.10470758517095882,9.88949376826573,0.03416347159959694,0.007557254596264107,0.07546960093483018
22500,0.5815896982338817,0.12656746994955295,10.026496176763182,0.013492254919017711,0.024167806160163077,0.03194298349438925
22600,0.4049767766293644,0.48139648466516693,10.23381883440942,0.025835550981031075,0.0719238899602697,0.006820093189303456
22700,0.19254268991632037,0.11528326606363229,10.224918501168945,0.013535530965169252,0.05385885397865017,0.08345284249659224
22800,0.32643698291411893,0.4174232561447164,9.906532426911642,0.08901926681956014,0.020486740809801597,0.037665215098026145
22900,0.5713439922199145,0.3578023705975292,10.13576407187849,0.0575778255281304,0.08021258675966708,0.025645506223686134
23000,0.4297844584683034,0.4621303959055275,9.984993201449686,0.044132495267667785,0.016919049992326997,0.052377704689853505
23100,0.5862232537688649,0.356199194470056,10.086363221987169,0.07536510386285118,0.0595465937967673,0.09975872981322409
23200,0.12634989184173775,0.5601574430210717,10.016286844536353,0.07738285439955865,0.022733025597180847,0.09710159006721875
23300,0.5003966478765253,0.3321064496140598,10.181955772391886,0.03424761941853343,0.0016566629340382,0.020367815288626048
23400,0.4571063952162441,0.3567289451641005,10.031499990521489,0.05273248561889241,0.07435912088689146,0.08176507792393627
23500,0.3291609834405741,0.2653894306641258,10.069591958934161,0.06751411709036378,0.029673624572341375,0.004423100865545137
23600,0.5836046276671175,0.24775129059989073,10.231697551613255,0.0617779521273918,0.028049060734156916,0.09962802544608433
23700,0.41164588516913136,0.18265257071180238,9.872256648075496,0.07719976769099272,0.047072062513213,0.06748286868722425
23800,0.16722625226373658,0.2681705439639359,10.280850011953532,0.06532375860628939,0.06559883589669589,0.09983090785953976
23900,0.2424530536779769,0.38038432492278385,10.26870730266626,0.09237701206004897,0.007241026452185007,0.08027157034221014
24000,0.19220891834359485,0.3982614192053502,10.051319200918199,0.08326129125313977,0.01708107130669606,0.011262275886891993
24100,0.3457988584298285,0.49473117953924306,9.934290982110808,0.08672716063680272,0.07201933453363059,0.04721075990865012
24200,0.4191714072325886,0.5172120860708497,10.244049287492578,0.08600930042364648,0.025106572569309517,0.01379992860711794
24300,0.28341375835399807,0.5605461681836176,10.095290201067574,0.08364274669891192,0.017419475759705993,0.096237731698508
24400,0.34244079495950885,0.5147300477175905,10.049630632009531,0.012080020495440847,0.07846614147541153,0.06417821065664327
24500,0.47490631740783606,0.1391968113126493,10.22972829920829,0.016101129503945665,0.00982285267912373,0.09683422628557274
24600,0.33816097613663443,0.2907554508096699,10.256882924039717,0.07196275415986467,0.04974267740443538,0.0851304743655251
24700,0.160042216336626,0.4781122016206303,10.05948881960379,0.09714518179601947,0.03698807585057234,0.056010811420287424
24800,0.37403540571363747,0.5813712334237398,10.237560663217181,0.005435267760907903,0.03677051067620556,0.0900925944070719
24900,0.16902775434857711,0.17123140286309976,9.804243236779419,0.06720774473870071,0.07693351139665391,0.09340470844744536
25000,0.4370025541506658,0.2570110706220726,10.0023634769443,0.07762267521575028,0.02734477113566445,0.020779414068582937
25100,0.5258493891854727,0.577202409061411,10.090155025069118,0.08336785711915383,0.0688373116314432,0.06299713735234277
25200,0.5786254768404389,0.5859243147783645,10.144762598868816,0.011793775841482102,0.07936815481736707,0.08134659690980404
25300,0.5998718504563538,0.20780797258088332,10.17994323699522,0.016899537326187743,0.09227068185229528,0.022913808530094382
25400,0.5089069076214295,0.5143006330444803,10.194924000580777,0.08875128612222766,0.014719242403139344,0.07226603796002463
25500,0.2983172308518428,0.33791847301903366,10.134442411984947,0.054867052937968556,0.0843214230543209,0.033233777053775615
25600,0.5958302974756867,0.1468217529108964,9.83025142927689,0.09734549484836015,0.0875676163184863,0.06314362514735433
25700,0.5427914786908208,0.3774556489245059,9.861733777157129,0.07238252599821336,0.028264919082120844,0.02159804079801706
25800,0.4689590789804151,0.38215029929484823,10.063684213637195,0.013177441123589817,0.08834314446488274,0.07784582033769284
25900,0.39344798058523667,0.10074185747551803,10.072379587971698,0.012379553585358118,0.09914263143869713,0.030759960675373944
26000,0.12315662787782408,0.4857041975666865,9.860408070614561,0.06846583658978878,0.049306322300725215,0.03387271081333045
26100,0.21803532470758288,0.3745215184923375,9.956938950190267,0.06796070633836417,0.06441191411700556,0.07997440128610166
26200,0.2091089195713652,0.22840589682896392,10.050980449312162,0.034025454480946196,0.05923826605765542,0.006695170687306274
26300,0.5206791968804672,0.17337360449414832,10.075244290908007,0.013192097266049675,0.09578146798906194,0.08317601329607796
26400,0.24263491610695184,0.310359102531952,9.934927694009083,0.0741951541083232,0.06888524907380919,0.07255811567753333
26500,0.17770525328130524,0.19511165861547472,10.182975843792848,0.0008600361703159032,0.04275189431965796,0.06788000543797577
26600,0.3129069835618322,0.1984073134078864,9.945389449674728,0.09482364994879453,0.058330938557672185,0.06283710782572266
26700,0.3467648378689566,0.423217699211909,10.27122264191054,0.0023860088088166424,0.007596587374257946,0.05044735405951284
26800,0.5119234933914548,0.26535964931987055,10.23389046632085,0.047542383939680105,0.09885673307767728,0.05619294013680967
26900,0.21084336154142855,0.46822212514310646,10.154456776121346,0.07568957058188418,0.00020144960960629679,0.008734018586713155
27000,0.2685209905887008,0.513796479731139,9.97747166821645,0.0740358558271577,0.04634078398141348,0.0023744855562643275
27100,0.43149060175857945,0.23871205138964116,10.279736777376172,0.09761027788140332,0.013686578030101239,0.07349089921939553
27200,0.5630871596486932,0.1875909930822778,10.26363620090902,0.009427109826305147,0.09690278563717752,0.05310870992051438
27300,0.2878476274815718,0.20860942677513702,10.22508860751395,0.07024871203716015,0.038226976503911415,0.02362905620017578
27400,0.18806323840539377,0.1923395476126439,9.91539761766258,0.0036975823157547774,0.059195043401389216,0.086196528980113
27500,0.37307451592999574,0.2271275269264755,10.236078645474983,0.06586811945785356,0.03830540183090569,0.09014184647840105
27600,0.2630661777067632,0.5351099043716464,10.196966472366336,0.08336684376578,0.013464827854570439,0.04550597628786143
27700,0.5101256481398715,0.527490954086985,9.933997246294258,0.07195731002496993,0.08455464629720054,0.07877809944737336
27800,0.11570337840376574,0.12602267059524044,9.860997564086215,0.034755112328527495,0.012591026993466481,0.07928901410915415
27900,0.2726983638531296,0.25247457552530694,9.905854428232027,0.046436295668306565,0.025599454458712013,0.0723659027579053
28000,0.3813250877037351,0.22994548221307934,9.928557323488587,0.07542044138012513,0.07696947664403242,0.030421086009909185
28100,0.5088526761117366,0.2511585807949215,10.103887456002086,0.03908400692853458,0.03757083489263777,0.07610079804190523
28200,0.3643606087992113,0.10965064410334571,10.022441297974797,0.04341190335063777,0.03935844817380353,0.059193238697117616
28300,0.4694455849465412,0.16039091931519664,9.93219850276472,0.064432041091648,0.05743519995801958,0.0005884735836836797
28400,0.18635239509556914,0.13576820327313224,9.832527834280594,0.02827891943647879,0.09961301512580277,0.07690317928830567
28500,0.21723303382413314,0.4850066127647281,10.221240835401824,0.07514440714879735,0.0970933629033345,0.06500155743546902
28600,0.2846202192024071,0.17506493243688012,10.090563487974283,0.020339161494712023,0.02844516297055153,0.01668792702334584
28700,0.3612060580405879,0.19278815974109179,10.166867178021855,0.05793663577346836,0.061147590773888406,0.051609315053990884
28800,0.4342121092030812,0.3450129841509194,10.123756541399468,0.033159237390373124,0.03690405044243378,0.06024929583456798
28900,0.31114550026348065,0.14170168676860892,10.061327329900838,0.09235969840116004,0.0036165691961321245,0.062321622142274914
29000,0.5595997747303254,0.28100912415894186,9.849286025978744,0.04723495838103984,0.027934555969913212,0.060388165685542006
29100,0.10193581169056584,0.21606913135121672,10.15996115954495,0.07297388253889062,0.07154978333140131,0.09540689434908939
29200,0.552791740864219,0.3593881391922018,10.054221154670667,0.06759899613499139,0.08097874346616918,0.06608877526589545
29300,0.14910078529797813,0.3650517055870648,10.121504927312513,0.08592939935771167,0.06739398402598208,0.0600104559709376
29400,0.31412287262581695,0.5631008226407512,10.223456331367483,0.02364749518646462,0.09182203588070365,0.05096283895799319
29500,0.5210011214479189,0.5709776528687567,9.882330878617019,0.002073949801405728,0.03916104216540864,0.014457739810226378
29600,0.24994996157221158,0.10687078734637548,10.25090494543568,0.09742620018992723,0.06190937806892486,0.027067377108382376
29700,0.5454728404207071,0.42922023661847153,9.99872869430949,0.08974610118389112,0.022977338980771644,0.018609401967979302
29800,0.4690098993916192,0.4251948103235048,10.219505404190631,0.0059009523720533145,0.027962252153048674,0.0360514631147597
29900,0.20442436953844076,0.5899531238323411,10.294422910981643,0.08285092025062255,0.0037421274779946946,0.05802409569996943
30000,0.3043908676712229,0.565815589898886,10.01072305624867,0.07602339154828809,0.0566849719128976,0.09234155175116827
30100,0.40368270384239824,0.17865763460737608,10.055396827405014,0.05591460812046935,0.09002457627925653,0.030852581327226514
30200,0.10473212681385982,0.10329136742816039,9.910787151614855,0.04187588440354231,0.03070150797406819,0.08727343750350655
30300,0.5722745241775822,0.5864080367796094,9.88121144442333,0.03256544160786984,0.05582388160894665,0.01579933537369249
30400,0.3534151977589072,0.3810355306579095,9.852810148975582,0.043454280585778805,0.061076223567805676,0.08543951732386328
30500,0.5642321586028761,0.5147446853012161,10.248317349840033,0.026002819009778723,0.03508370227346731,0.07345966311427828
30600,0.17873457045217647,0.39485100676255724,9.99893923900995,0.08366799009265362,0.08164946278068441,0.027042773833662437
30700,0.10801701506565284,0.13093134787513308,9.943679585822442,0.09683610972240059,0.07458057201824435,0.09217812232000823
30800,0.3754565406769572,0.22892143932464867,10.008414210938286,0.05965831104944167,0.05931139667570508,0.08550279575708115
30900,0.3836006061235673,0.20301712307922157,10.069052119519615,0.08143562091931783,0.06753702941783944,0.02158936679775524
31000,0.2643021226050748,0.2315927832887613,10.099868949605321,0.06416452462925072,0.09332048643687657,0.07006970567050008
31100,0.1360150245776993,0.25510003502237966,10.231407375016683,0.0940222571333364,0.009650754590105748,0.07414125144256765
31200,0.4328856212192239,0.3537858716274387,9.894862033904259,0.09903198836103028,0.021285159760019726,0.06264083404776437
31300,0.168460915946938,0.42737354974165387,10.11548015912345,0.008998789187694456,0.07442920676950714,0.05037374432132651
31400,0.31418034050081955,0.3953363747366818,10.118767494352888,0.07530560363602806,0.09486058966412342,0.012365641369247128
31500,0.1770675185469248,0.12050122914634617,9.84915005584928,0.09178470229250771,0.009799873862278485,0.0009268679697791993
31600,0.5530673345308655,0.3266024467087827,9.91182932591707,0.04423904797828729,0.06612039543888938,0.0168918280480454
31700,0.16545129259499217,0.12518577545814322,10.020345519221904,0.09690513287044453,0.02488530543521894,0.05885733925255976
31800,0.5872578133252124,0.19090827891714005,9.961296274796657,0.06318292499121723,0.0680078581479208,0.05364622629558782
31900,0.4648958591209269,0.4463233021039964,9.828637829345343,0.011381737363145294,0.0023021898670317676,0.007608596557833036
32000,0.17316517822744484,0.19635789579707105,10.254632238724936,0.056977115397544714,0.08248945787195865,0.01658583985296083
32100,0.3357264291719161,0.46713015474579955,10.161347635870277,0.09083199018623467,0.07230964473739449,0.04435150372307515
32200,0.4490246818981035,0.5500907636526219,10.14400121794602,0.03153585013707812,0.09512981271104823,0.09380007441750371
32300,0.4924296283197893,0.5271956872596046,10.255885799822083,0.004720943999985173,0.08136148540489402,0.08886062447462016
32400,0.40575059069158104,0.3027790377693972,9.82785729217652,0.06688917720350412,0.027533228563530156,0.02186055756143107
32500,0.46168633138779536,0.1105857733852881,10.189764620081943,0.05619022820868402,0.0595798076388729,0.01856091301267886
32600,0.5848415008106989,0.42113809278380154,9.87161877470347,0.023868799908264807,0.05998011009279508,0.03609962139553843
32700,0.42478364005923785,0.3798084038298227,9.914920285455578,0.012070104179479091,0.055236797508873975,0.09563428682395979
32800,0.5420186177446864,0.3705718925479575,10.027753643075053,0.06525604556436175,0.03534619833503168,0.07085451116829287
32900,0.11166063223298375,0.47125016520848284,9.868247764312317,0.00756808546740142,0.0826562354868365,0.01728678477304817
33000,0.25521184868356295,0.4569564017632627,10.101535326154464,0.037447755620642474,0.04210967242512414,0.034598603089447455
33100,0.12954775521275266,0.4733213515263607,10.081892983944684,0.08860385825304802,0.08551762022093645,0.05855040809432314
33200,0.25113250170274093,0.3861488143034806,10.263051244688443,0.06695435223788976,0.06723489809788419,0.05911979689948295
33300,0.4302353609931683,0.29416509034232496,10.115446913635877,0.012381484263652343,0.059992549585695276,0.07013777668818454
33400,0.35409615462665023,0.28146508838516904,10.007652775079375,0.08129338098267058,0.016089941882523596,0.04443968303163708
33500,0.4332874961719593,0.5060147449672036,9.943298826096846,0.03547688401659318,0.004767591876661981,0.06774472670722644
33600,0.3709542280369742,0.335935330343759,10.054504616530114,0.0918371914025702,0.0215964496496589,0.021940116860046068
33700,0.5161874136286799,0.4588397513587581,9.89886550896645,0.007520304054552729,0.017698753328091944,0.0836454630157318
33800,0.361234966945446,0.1814969462592623,9.928617768666145,0.07239826494882147,0.062218262518691975,0.025415199668780943
33900,0.5198934696164594,0.4991105884036783,10.110264536714743,0.059066733972163325,0.07096416168439719,0.0027332276263511536
34000,0.21227140991760504,0.5994732863929984,10.29995111725163,0.0133026137170424,0.017414294136544575,0.032959062722353195
34100,0.5087292292086776,0.11787744571242367,10.151963242386874,0.08661382706947197,0.004854823964289656,0.0881542175275551
34200,0.569434623882175,0.4080118951198266,9.906083836926646,0.0395487996517877,0.022814717675902253,0.022081131588844585
34300,0.34495048606959955,0.12637618158878414,10.271968168600372,0.09281086458745928,0.09126615140849018,0.0627071818623768
34400,0.47139399459693454,0.5599712072181081,9.984424051099667,0.04834670499520001,0.02619968221652934,0.0895552133653354
34500,0.46569639133083407,0.36196740784819537,9.917593927277096,0.08805680575177932,0.01283628079622008,0.0919207050797699
34600,0.14373261154820563,0.5193301962890625,10.290138985915362,0.03491649616225392,0.06373241192550537,0.004466831993342746
34700,0.29654689958462344,0.40089732670290423,10.292547921678558,0.031143803495314537,0.09047840464179317,0.0419813905806079
34800,0.5848538793646825,0.4913485988442714,10.00289507987363,0.0037351482124389213,0.027812910374008393,0.013433054325720551
34900,0.35215751337071743,0.492855843177618,10.03346026050352,0.03548564589194086,0.031506782644264174,0.020858544323194273
35000,0.3829861027328084,0.1812605871014976,9.908214090178411,0.07493683325539786,0.09485136976669464,0.0746858378087255
35100,0.4471005827073916,0.2931329139747174,10.28426702937454,0.07777680706761786,0.022919876306836975,0.05342632507738714
35200,0.3458167399643082,0.32344954608164744,9.918543270114679,0.021424953577136932,0.06462212534724893,0.0425056997940579
35300,0.20739056396392222,0.4022636905488203,9.850583927005042,0.09286768773136783,0.031139173777668686,0.009155219715080454
35400,0.4928004609918034,0.1789941872381914,9.812080277041801,0.012927474025860954,0.06893078031079185,0.04381023167341175
35500,0.4278898558285621,0.47242201398119354,10.203976811201878,0.05818501408646224,0.014693670347021626,0.005766138426043732
35600,0.1429942560676872,0.5089596221927309,10.07623236263043,0.019540322401004964,0.08981022601281864,0.014295379849410773
35700,0.4253129084886964,0.5656470128523136,10.207749565677522,0.05184067031088593,0.025163985220343944,0.006298054226660976
35800,0.18871538137065766,0.36243622924434626,9.827738244664047,0.05676970436726454,0.054561318296262054,0.06936170961452517
35900,0.3095703011919019,0.30672355734298307,9.972971335552023,0.020613110692566352,0.0856271443131045,0.06348959875834123
36000,0.43475535576897706,0.29338832679948856,10.208982915439863,0.09388015078699591,0.036492549019305036,0.055174090028117434
36100,0.5950072431678198,0.24855030477186416,9.825988112556404,0.05698878430867485,0.015238220091228105,0.08786049586234544
36200,0.3628753736506407,0.356021563206107,10.035179345919474,0.05245427975666389,0.015428692581270588,0.007496634111006428
36300,0.5394591338343162,0.5870216074457758,9.858256036813636,0.07464695292087721,0.04233724123048091,0.0860765844420482
36400,0.4730137068376591,0.33370388519407546,10.10500550692004,0.0026869119315146572,0.04432798471300673,0.056493472541069435
36500,0.19463639000066116,0.13449471158788848,9.829778552304882,0.024737853563683812,0.0747225297215605,0.04595829970451833
36600,0.41493906485237897,0.5711869588177672,9.800037337238207,0.08113871308057512,0.05550361764180013,0.05110021086169391
36700,0.36736149339717705,0.5920394888685608,9.985683476512524,0.06250196502049542,0.061742315763238104,0.07711538790716771
36800,0.3255574625798745,0.21191119238903142,9.984600439540907,0.032483709548561605,0.07876785006616288,0.06825589666885022
36900,0.2102850264535974,0.40867627439003307,10.100340657456321,0.005025950701411742,0.09657438312523504,0.04440566939493179
37000,0.21997586691856488,0.10735837057733907,9.966082031723612,0.07676733189348484,0.05231426400019018,0.04136364035786232
37100,0.2792601007347161,0.5673199018209751,10.076097266809933,0.03647016201128285,0.09381773057093297,0.039397695310183
37200,0.21062798464761648,0.3082218403057245,9.875971621926164,0.0286755463397244,0.005009922902104325,0.009449403325875572
37300,0.5720369202413186,0.23196907674382808,10.270061807716814,0.03538649896526779,0.08564917838619901,0.018753279067270336
37400,0.10430179127341402,0.5852945770140855,10.030425251238277,0.07193204396520114,0.020537477198262245,0.0993946263627011
37500,0.29744081457436644,0.5372125245636262,10.209891656850974,0.0819959378417901,0.09602104241360498,0.07945664899839489
37600,0.34401135773303937,0.10540618811272831,9.941997089263271,0.04807280567689157,0.09205006772706996,0.0483376767635059
37700,0.532628739029821,0.45334149226101983,10.219488673471107,0.009208152146161963,0.024703267346687364,0.08028202984501343
37800,0.504378133850051,0.4083687090845627,9.861419364252747,0.085533713713768,0.018913268785950666,0.012336876999612967
37900,0.30516220289232354,0.1183888756614879,10.02381422352228,0.008937169860389671,0.027613850163571665,0.043835583045484496
38000,0.35417904723054106,0.335422142429447,10.251128019765286,0.07341482893258812,0.09679079842129118,0.09494814659629264
38100,0.12766718366971955,0.385896303522932,9.853571759401182,0.021876732826025126,0.09930918502904333,0.07468226282994612
38200,0.35047671334285113,0.44764858107519356,10.218657951851345,0.06064439536973355,0.000267791577546761,0.09469865514821872
38300,0.1885440586141168,0.19156715489560303,9.854050490987971,0.0570601081451282,0.07329384004191257,0.08779842259977726
38400,0.38578884109428335,0.31287197585624993,10.114842309130625,0.022257222596420934,0.08286038578605559,0.09537047777919722
38500,0.16115689645025297,0.5752784353668051,10.127849371938694,0.023373839076772752,0.04866827531624717,0.004427913723249799
38600,0.18997579559241415,0.2928326024335858,9.999258865239728,0.07690958508873069,0.05258979477371455,0.040287957814941745
38700,0.3768803687807406,0.31480503515358815,10.155405705427182,0.09567317247924084,0.09988870201218975,0.018457342670098863
38800,0.5621529404159331,0.20084777431245368,9.93486526420476,0.08857702503276792,0.08031329269134346,0.07399917522928123
38900,0.39179966731357585,0.4909165822852425,10.045466402886278,0.07268100430259584,0.08266779659795384,0.02274683904244057
39000,0.3166178110795701,0.5109859076219372,10.294346426394208,0.0649448331415702,0.06841212907858733,0.03367319940838883
39100,0.32708553957579667,0.5955544958992837,10.16464543880833,0.03393887493652281,0.0684893445964767,0.01720868845649969
39200,0.3304490054491074,0.5798756328416981,9.891569745366303,0.04588213159685677,0.0021126762394960918,0.0006658431040157953
39300,0.3299771794692641,0.12509541096073976,9.936478083568673,0.0713700024332428,0.06889233285842548,0.004506966692884806
39400,0.337965161820565,0.4830517829924047,10.283620947061673,0.0680096238506228,0.06242037952389865,0.0025001197989749646
39500,0.3980810585060046,0.36440350662211773,10.112759577153449,0.0236985743125547,0.023611849244095262,0.031933649426530285
39600,0.1550027929928431,0.2828569817296872,10.044532440252096,0.010847468207840405,0.06383905865497036,0.007903665353488422
39700,0.42481000074927433,0.4707780460119898,10.200522411066435,0.008186624930976438,0.09631137289492156,0.043403371710799526
39800,0.24558566699462883,0.3750468327034949,9.915175480208683,0.03657159881235935,0.06997510593761742,0.04730184807451407
39900,0.21048427120908256,0.3232446486347025,9.85047991742481,0.06282774918902465,0.07368330826225608,0.09922487084828453
40000,0.548150259341323,0.38690610466719033,10.215246101518593,0.0489821633157201,0.07083815213214385,0.07902267104826459
40100,0.3870220043272282,0.43790713502083234,9.803802014340725,0.003661304783083641,0.06956793602648026,0.06808057298675552
40200,0.13752082756116832,0.3724643313999788,10.055873062228262,0.08959152492616777,0.0786222625450263,0.05112727631253142
40300,0.18385720722753005,0.36635896156625236,9.936554024656441,0.07611838051318974,0.09714719097893401,0.09144724573361507
40400,0.36108916484374487,0.10842520653138307,10.250530705346394,0.09611782617931326,0.07026974273982813,0.024774135005266776
40500,0.3945128119777659,0.4026450643193168,10.190801232631234,0.04906181899020711,0.024507543795908738,0.05662343637816511
40600,0.4354520086743756,0.4132447739005035,10.26785758492787,0.08517591535027741,0.04081751094272478,0.06113336992128589
40700,0.43488547350313633,0.3935062888870865,10.226484930167302,0.0680856243774384,0.08837481873377678,0.018556400391370843
40800,0.3231464954149925,0.10464513378140686,10.281637639264089,0.05442516587565839,0.05586588350192176,0.08113586278775589
40900,0.4100763307190901,0.5971558556549148,9.929455613981563,0.02947174741061881,0.08354986944679797,0.005314267685514085
41000,0.1770223009439991,0.352673167177191,9.939342892687023,0.07521224612321173,0.03499710397600007,0.044793082829928624
41100,0.3465928751121794,0.47097678585167635,10.108419652790378,0.03218065116683599,0.05229254650533343,0.06401117340824784
41200,0.24202167512149433,0.13181533364881862,9.987669486563663,0.08881264885316453,0.08350882901763391,0.06598680715218219
41300,0.37125531077313256,0.16338688483369276,10.12335634281746,0.06393867365509898,0.01935909770261355,0.051784326955053465
41400,0.42648272994899294,0.4714838139984002,10.156080341274656,0.011267831331973212,0.0734112733380893,0.06986904346407105
41500,0.5700062023701598,0.4710054644360414,10.075316681413868,0.04695798932465181,0.0659117925687229,0.03218533488397462
41600,0.5784532539186618,0.5646781969508988,9.975081719517695,0.0733467228331339,0.02611389562965204,0.02361046915725719
41700,0.5930498146569216,0.4802347071550439,10.089136011257114,0.025990139516790158,0.09693996832443336,0.047662282139926904
41800,0.1564256402124247,0.5918386335819011,9.957743835521986,0.053666577991775405,0.07019050450888546,0.06489717204719257
41900,0.2941010705470902,0.16951947074641263,9.970709377257778,0.0021566930621691794,0.08323138119876271,0.05825824766098492
42000,0.5436394293176596,0.20978008105365378,9.971380878375328,0.02035069146372083,0.003526745614199478,0.00735409136714158
42100,0.2767626393499849,0.1415522439351896,10.084923780992252,6.988085127795918e-05,0.042036070933708584,0.03475025561958419
42200,0.23102910524138162,0.1751552031108843,10.145345550631582,0.08970994493332966,0.036174205250923595,0.0013390614875517627
42300,0.5544884183015903,0.2379074102596274,10.163707627723873,0.09601472948265342,0.08976143317689017,0.01709132686482695
42400,0.20361543555978576,0.46921775062850235,10.22091370704029,0.06624778224548784,0.07447069889745915,0.07434973188887843
42500,0.3878307026194584,0.2732576355111068,9.863214118244171,0.008863562376359468,0.060544636683680875,0.057705822096318894
42600,0.3396052626967625,0.4990289746896247,9.855903459656805,0.0217535727623685,0.012723961241141458,0.012849909056654618
42700,0.3685883301246037,0.5605979944516818,9.949127267031294,0.05656340968942595,0.00150588111631369,0.0023709245114966974
42800,0.12402036285656412,0.4988052458663388,9.865371445276633,0.023736766555603063,0.05040414993159616,0.012159549730498832
42900,0.21248007987471776,0.2998193663035289,10.03941881875921,0.04459430265604809,0.056905792678041314,0.08844392973600862
43000,0.2154776051679154,0.5730110562347273,10.242903792049205,0.09381303197266821,0.049619022564051644,0.011766576277760522
43100,0.1657311181126235,0.41033308332362994,10.041725812758475,0.08279829391019308,0.08577953587051716,0.06430467873145361
43200,0.2846405091707591,0.45723473373636814,9.805298590341662,0.05671962076300259,0.029954488633754186,0.06703582843439188
43300,0.2125025358736257,0.14456055574403018,10.134808903231926,0.02153807997410652,0.053779885809228704,0.05281719387881926
43400,0.3164028389714115,0.3370484633256945,10.199243709055265,0.019273832401914538,0.0478035822044458,0.04648589856544828
43500,0.2177713527349268,0.37192947163822676,9.909162845629576,0.053049739714245675,0.032436268993310105,0.09166108097784563
43600,0.3568736756137748,0.139234836078902,9.845054340171014,0.06651947358277671,0.014753895879905866,0.09864025358236453
43700,0.3784347746432366,0.16532542169833667,10.12962891236086,0.02670186435744223,0.058556384485997696,0.06191601323356774
43800,0.10080393406850982,0.46489245565833404,10.202666426696394,0.05932668611630977,0.02619026757005748,0.06358369324990591
43900,0.15081828613105083,0.39020267213972437,10.127265115430202,0.04087818502299356,0.05471550607652648,0.09437439071364118
44000,0.15975835576919353,0.4765547119505077,10.282478616533355,0.024829574689389112,0.06804191738799467,0.04699086577830017
44100,0.28825705248336664,0.20267754465178087,10.144919219438849,0.0934214089315249,0.09134329010639662,0.09370042238044575
44200,0.20403179935420648,0.49354648825836434,9.906374970199947,0.012896509413802437,0.024864851975007943,0.030105257639126026
44300,0.2805948997023642,0.2919046336319914,9.832287827122082,0.011870375958047531,0.05617626090334504,0.07067450590296588
44400,0.2254107685660582,0.233366203815238,10.234245152262057,0.06592626857082295,0.02285406779776258,0.059041579915112885
44500,0.5538318277949658,0.4280151870175273,10.030680208671408,0.08274569520768704,0.059810294769297036,0.004057189879452506
44600,0.24083465630880238,0.24666710719311516,9.968610394886845,0.004576896129150932,0.06085389707985042,0.013839956075109228
44700,0.15915697253431196,0.5949113373237482,10.03380185520878,0.06680219292772242,0.0692346094002516,0.053119782497007134
44800,0.5145925649544553,0.4982273968915394,10.051106437140817,0.02854719432574372,0.03782370604099444,0.02775162811467784
44900,0.5829891918287982,0.20265989994300201,10.247973228862898,0.025247269403962325,0.07904322134369146,0.08198686179973143
45000,0.35617756426301017,0.16677158809041873,10.15536882350169,0.05048129977638149,0.04331615158078853,0.06299178060920173
45100,0.5440310360180606,0.49440714208485137,10.155339510056464,0.08663933835135419,0.025215040363527775,0.09746567629871503
45200,0.3728352139728681,0.31035927726061374,9.929158889058453,0.03337581287096179,0.09242576639933851,0.01379234594423815
45300,0.3459973394067719,0.24004446647023966,9.911794337926976,0.02282951351046989,0.0013959644374164082,0.03920266817470524
45400,0.5204972553694694,0.24573243762627775,10.24288802885995,0.079768174435363,0.03270531782903868,0.05422021457745149
45500,0.2770204000618609,0.5033589112675106,9.958228837774465,0.041590908873671055,0.02390127851523164,0.02817071817184772
45600,0.4842631816988493,0.4507125211071852,9.966120918378202,0.01895768547903666,0.009019912939367413,0.01589183715167144
45700,0.3846105631121186,0.41277534716675424,10.186607318745008,0.04666047185563026,0.049063092839279454,0.01571320151018011
45800,0.5445541433105575,0.2812070176721466,9.915923317491032,0.07855931099212558,0.012844917219455366,0.08108980976536762
45900,0.35405041651388847,0.591867911360083,10.104421745959508,0.013669484992280368,0.023038617335722923,0.07193527330624991
46000,0.22089477113293224,0.2039106867339668,10.089985393619356,0.07902453042859588,0.05464783622025432,0.006103945602140604
46100,0.5222561668468639,0.4995694419682689,10.042363074337299,0.0976426154851118,0.017838143706215816,0.06109761871222809
46200,0.39693284345963364,0.31016764936575814,9.957481237075946,0.02299910423471331,0.06583194944312225,0.08655689803804817
46300,0.12004874102215943,0.5472431359737682,9.941598044719095,0.08762045202509637,0.047500280331750036,0.05476759792334429
46400,0.47084329717792783,0.379701802552602,10.225272393203007,0.023927642215958434,0.04926701644007939,0.06717456309148456
46500,0.3114109875561746,0.45924159663766073,9.877223693758735,0.0825339436120877,0.06604793638457508,0.05637471592837018
46600,0.22968684231242922,0.29339585498204646,10.084658450570757,0.09442407674697814,0.08910863025856487,0.03008616272823449
46700,0.49286381263790047,0.23061883091093813,10.239674378289457,0.05361571897241925,0.05675969167548659,0.01760111897385025
46800,0.24088357335074254,0.45114989575127795,9.894056038583146,0.06257144288155313,0.025008316507054252,0.02193467527139772
46900,0.14294483053169946,0.5234107004338443,9.922524435024803,0.03725669747117732,0.007429170473204872,0.05408428125603581
47000,0.3606333257584867,0.36095510732296654,9.929617381457863,0.028124716217575552,0.04415267127555067,0.05240466606014848
47100,0.2561323714212663,0.4963541734584518,9.975616398508151,0.09563818036725504,0.024616878287934563,0.03459663859304775
47200,0.15984833899712006,0.31836645294127486,9.912822855566837,0.02612278008590716,0.04883185967208125,0.007196155844321906
47300,0.5160549093625981,0.33105001005948065,10.274386316353663,0.08372909658567575,0.011669552306733666,0.043082053189185156
47400,0.1150509925430804,0.5224227326598874,9.894397364991207,0.02027766784022842,0.043771102178898104,0.0680723653021517
47500,0.2372125695376107,0.13897891167723378,9.947490342690182,0.08603633372493327,0.08455615375173257,0.08188347965385878
47600,0.3547930846927262,0.15417125888318153,10.242458734290997,0.003249125463172209,0.0477832059608787,0.07091601125964273
47700,0.30828698588472736,0.3874845798131057,9.99896913049285,0.07421239683266641,0.0609636410041971,0.047685284267357554
47800,0.11526139562893759,0.34075170866028714,9.891629454341315,0.05899385234987632,0.010586001201965645,0.07267945425130493
47900,0.5951597899789708,0.29186343888784916,10.019854032936024,0.07581170833270343,0.0061959693547872455,0.0680179910951641
48000,0.13119037477753512,0.5346546468085748,10.048551426254472,0.03529137380334529,0.05287526098271061,0.052447790434799815
48100,0.1992585985172017,0.2842067485420209,10.045618311871285,0.05309918916682508,0.05845760179712653,0.008781415780849788
48200,0.12509879203655624,0.4574308520943511,10.078398013281396,0.0827289175113222,0.09645573619092379,0.027476557297539207
48300,0.3931368368969407,0.5574142639386434,10.264642694969403,0.09115034107231368,0.0066424619497720385,0.0821840802763123
48400,0.29114063471485574,0.45061196966411643,9.880175520294125,0.040292668264550316,0.07837389304900463,0.03377083569494386
48500,0.10482930620557326,0.34345446441316685,10.262365328844602,0.018486977288389484,0.08006475883088587,0.04355354420229051
48600,0.4127594770108223,0.16589487918069654,10.237150551670467,0.017602458834570112,0.06783082430759389,0.05681533606923392
48700,0.26102739671679576,0.38771979863034256,10.169079950655107,0.028922001854666493,0.0810211720830013,0.019049358507359993
48800,0.4881675074452311,0.3964126215621675,10.146712045223001,0.0557683412694244,0.03425646661947227,0.0923384593187992
48900,0.29656672868164324,0.5992705384577979,10.258148842005856,0.02487673187437105,0.07504686189009431,0.07969019169889022
49000,0.2400512057842227,0.21723789121052992,10.056544338644986,0.06815718989402791,0.025727304819018627,0.04374925066527028
49100,0.2567410252529134,0.23687802079911366,9.84957606361828,0.07367695221810408,0.08770483262919881,0.023312130129985
49200,0.23929865342370446,0.43175947650649404,9.857936281728096,0.03129238394407293,0.01935952717032128,0.04486862764642563
49300,0.4040355881855304,0.5528219336878984,10.11637561959727,0.015455231273700621,0.016228685193079396,0.03234084409960537
49400,0.4864134900041134,0.44333865220159485,10.182953430369096,0.06545147626305631,0.017401608043875128,0.013241069889016677
49500,0.4154224449831516,0.12366580117668788,10.036443874004108,0.05465253816314251,0.06933215673067723,0.011899513012825458
49600,0.23681938643870173,0.40835303693116753,9.947821676521192,0.03015659065066364,0.037940410187471886,0.08113952705855974
49700,0.1190078611764818,0.5781283195183634,10.084714299414236,0.0698488461159629,0.019219252788204466,0.045971457013011675
49800,0.5299880539755736,0.33499198821555465,9.985514520165191,0.025520070611404256,0.002142499884154192,0.010888475078529348
49900,0.23434410361249033,0.5730739571622419,9.847446307681572,0.029677407147642845,0.026783030266302077,0.09938828051070724
50000,0.2248860773346593,0.13707836364848017,10.262004734891324,0.03598543842782823,0.04556654156032283,0.09735398387482838
50100,0.30215452532320586,0.38622760014824076,9.963603517512738,0.09642877229243117,0.08382618874149216,0.01983697797237495
50200,0.38573397975644985,0.23989224655437333,10.096891492277388,0.07649344838409293,0.003538950610614722,0.07380199490743926
50300,0.10829869499647957,0.17643502137089687,10.289359501829562,0.09985836553434813,0.06426080499285529,0.014097936828960612
50400,0.3355222316224392,0.5823636058654832,9.950793082861601,0.018140066547284284,0.025237740499525364,0.0835892834379263
50500,0.2853211337007401,0.42385659505479845,10.092119982409256,0.07301035309082785,0.03733382222554841,0.09530589456349865
50600,0.2545206574760508,0.15020089435719167,9.89462746777863,0.0025117337013889855,0.08580558355759889,0.013936271710329406
50700,0.19591844795000504,0.18293049540449777,10.231454601420618,0.08812580658492819,0.09092765761487077,0.07812766191146842
50800,0.43254578860558845,0.2265778629233147,10.1077587806914,0.04569975169573999,0.0035708643904989405,0.030708482738650067
50900,0.5036499402031298,0.5518093258384262,10.100004168885363,0.04911522151133198,0.06775863723651983,0.04896612088815111
51000,0.4227704111716336,0.3869365196807245,10.106703873094492,0.004085480469205149,0.05905018410024923,0.03909585935045959
51100,0.24545034578291594,0.22821681609123587,9.84901470512804,0.017093742279665904,0.08884189028533265,0.07211330137710821
51200,0.15398951942316016,0.38522063298304043,10.091037491393674,0.046654637827703474,0.06236979907247665,0.08061414045109005
51300,0.15214904530902765,0.21191987977916862,9.90544604753999,0.0002541937288895957,0.048151621490674625,0.022459417229983892
51400,0.5325424810447474,0.5010989987916642,9.916358081630044,0.09066269373230966,0.0625269057140332,0.0364716008827365
51500,0.2618834816878778,0.4337629334940408,10.13976496364461,0.05984249475869144,0.06763256044115559,0.041900716961429996
51600,0.17752512902865372,0.40434413861054197,9.902048980481515,0.008074858555491294,0.04856958768208735,0.03845256959429821
51700,0.11899507622930214,0.5540404715577988,10.155585764936891,0.0209797242761795,0.02979573961419564,0.08643861094045557
51800,0.5065609582377196,0.4607371129409902,10.004989043770868,0.05845862405495209,0.001551549908107952,0.03695178106045634
51900,0.3363551920768215,0.46871164996192216,10.268061717885487,0.027290370628219165,0.013913403233224354,0.027239393569195237
52000,0.30541085407075674,0.5698555127505925,10.099650209001528,0.07749633043218063,0.06533697837931243,0.028173301092615045
52100,0.3532421533728587,0.2891326595384255,9.881682351738013,0.09046207762510794,0.042972423817204154,0.014157284709456708
52200,0.2937626110019308,0.2375858284473739,10.171254924948483,0.09281012578840485,0.018681355004233437,0.08118495860455774
52300,0.2551820929790012,0.5022533858643629,10.235758716252425,0.053396316506111666,0.002006271259696635,0.004254953662333405
52400,0.4484084243232809,0.2889919952115422,10.107577443938649,0.00318445657535813,0.05412120024296157,0.043873711159761866
52500,0.4906828423720283,0.2408164725307775,9.807955537564872,0.08532963207405361,0.05088147465856385,0.04282894028056729
52600,0.4244555366006787,0.3393271913937541,9.937713531070257,0.06812397312720003,0.03401514874312052,0.09340960521453977
52700,0.41853930143297646,0.12589587722034537,9.850717652816366,0.008840714658021864,0.06707060789706555,0.09158629854929023
52800,0.28569991130208194,0.28658256400086224,9.823237926309345,0.08654861641137368,0.07814904379893918,0.08980148394515708
52900,0.3409984646098294,0.5832408223108675,9.908249486580075,0.03980706281158304,0.09786528324151567,0.06935996755770821
53000,0.21344076137400356,0.3302118191704001,10.153051480460816,0.04796876333254424,0.06687755671348533,0.012640298494039326
53100,0.287170246636837,0.5276004332235655,9.896903976300122,0.0486335960474909,0.09527308929865862,0.0651775141701649
53200,0.1810709785417968,0.1100425403807562,9.826691347983038,0.02137983413308432,0.003551237307669586,0.09852012025460949
53300,0.4123544978068143,0.22975438472380424,10.233767875681552,0.09526324618183801,0.05953018333148417,0.06508438020336228
53400,0.12415639316372543,0.1785568579014817,10.048334180079648,0.019070743074327413,0.045469563270407236,0.08726639573732192
53500,0.46078688876777185,0.5394004635329995,10.218587397145901,0.08594577855929983,0.07614908526741859,0.05731694849166925
53600,0.5435930711341712,0.31499335776649395,9.910143566634938,0.07029928003621529,0.07242559822510627,0.049269450901586354
53700,0.4133945471817492,0.5291726603311634,9.859641862823413,0.017982910862716275,0.09457678763024545,0.06478193553670426
53800,0.567932426922412,0.18406011064270142,10.061457516031117,0.06429730461473485,0.06684658214860771,0.07876705875714077
53900,0.37709868749333364,0.309057268676052,9.897835736232354,0.00988763867015724,0.00764973465546327,0.014762398951024614
54000,0.20862933450797025,0.26645815482114643,10.269527950512074,0.0007008846758338795,0.08370337256290226,0.09865127358802372
54100,0.4961088303513165,0.346503493961718,10.238466180664627,0.05319985372393052,0.0771455139991371,0.05900062185919469
54200,0.5277272040886257,0.455491402513472,10.02927168930256,0.06259032169212078,0.06713680577401053,0.01754648602180078
54300,0.549136808777571,0.1544160683920188,10.01727247834643,0.084662986247845,0.053204226726736,0.03301653326945221
54400,0.49494448607751274,0.14405622526886128,9.817864516862418,0.0281610418034728,0.03158567567828635,0.05051081471859643
54500,0.5186127144672729,0.4809459214588352,9.821893700603813,0.0036969826026096667,0.025209291119325294,0.016253232733294876
54600,0.4833696826230268,0.4333275498053346,10.230149733716583,0.06614502489239313,0.0767204681653405,0.07399027253223371
54700,0.3319860571449671,0.37242414910880683,10.001980239403544,0.04123654537311951,0.0915704412697968,0.09285320471793557
54800,0.3397141268424012,0.36694758295838115,9.876595258825377,0.04570150756716971,0.07162200609722505,0.024756377436108336
54900,0.1837751962052144,0.4100711713357089,9.94073795687576,0.0757968517347698,0.07815518171792352,0.04060229835870589
55000,0.37287166490377777,0.37506129667257126,9.992208604858906,0.01689809818111627,0.05922096980733006,0.056755887105170336
55100,0.3317717696583117,0.3758770332186194,10.233406680153884,0.011018046668613547,0.06141941407244109,0.0685408375974539
55200,0.515124949031544,0.5155855204366305,10.15018241326842,0.043492156635815196,0.011469290968583946,0.034982226699524256
55300,0.29761610695777385,0.30713534269089715,10.141738845103694,0.004122106997844832,0.012784954519886628,0.03387563367172699
55400,0.27465498681147094,0.19816701884524654,9.872085462803573,0.017302559850915666,0.09488813063942146,0.09703831372274016
55500,0.14014748675573432,0.41980524473755076,10.087996476587227,0.05234332259936319,0.05305165803417098,0.06239250071018322
55600,0.24006002329245,0.23408552398541269,10.234081436914186,0.05049054456160412,0.08782523752981516,0.09809524914849244
55700,0.33883300850598763,0.15195745371623012,9.945461603419623,0.09582716787241577,0.07160347065195903,0.0392574853039731
55800,0.3335992232072905,0.4959034640254901,9.93509871213555,0.08945923405215889,0.027749439555745704,0.0976516315302432
55900,0.19109665508939364,0.4465190366985947,9.879542911261817,0.041840142843429184,0.04947660637000165,0.06488821364422291
56000,0.37260173271071806,0.5262050691729101,9.94190852862399,0.008315444520898009,0.060117190174676954,0.024842078409074944
56100,0.5604546354891669,0.5635297678779807,10.04495873081206,0.047241130841011336,0.020333791871027386,0.0738356083963329
56200,0.12723167103882424,0.35048467571058983,9.857922729258695,0.09740575522266501,0.02290131081201806,0.047136104100406334
56300,0.4642759705941607,0.3449777145355103,10.14014657444111,0.08488665071899887,0.08360763533060964,0.023323225643668767
56400,0.18267896897413813,0.4692715196556728,10.096316812590374,0.07634360563648182,0.037727379237939264,0.011927091702887539
56500,0.17076002907465918,0.4859202927418834,10.235855004969903,0.027421999023951295,0.016547314158925287,0.05002298098013394
56600,0.3384735370416858,0.35161357915727665,10.23071152419378,0.04710441903615327,0.06528891113705053,0.0553931150648616
56700,0.3800508196260931,0.3632249138513274,9.870681261103348,0.05462468948899647,0.02697267009306229,0.06420746232156686
56800,0.36186894289071325,0.3765761191849808,10.264478707889463,0.047427306018549366,0.01864211722088217,0.08338040386431464
56900,0.35156676670366616,0.43460903221600933,9.964491710361983,0.03411981048824726,0.08923466195975574,0.02796743084563491
57000,0.5262907169895485,0.1490745816591317,10.055143272186065,0.09657927800190443,0.0698402039630398,0.08023100934710346
57100,0.3819941243534678,0.5917839588964489,10.29179725623491,0.00820023003993704,0.0023191302507058033,0.05820378246924999
57200,0.3161176032935268,0.16616731719314584,9.81872829239801,0.06848649577084161,0.07865256515793814,0.0286965001866081
57300,0.5558681196820151,0.2147066358276862,10.22554375669969,0.011293192669408848,0.04597273622045431,0.0900707895744255
57400,0.2936243023061045,0.1445835542673565,9.894178180170028,0.06229393924311963,0.05745302900322821,0.09413098296086397
57500,0.46862115039401797,0.2177228692601769,9.938022241414616,0.05961065155706557,0.0783228970143433,0.045921272568673205
57600,0.3419137520487091,0.24788487866059736,10.169401972915015,0.032436944613090705,0.024319364792168376,0.06625508573798405
57700,0.35983564755094655,0.34844315132542525,9.990414646240652,0.017354812179999023,0.023249039642130976,0.08178606861185199
57800,0.2684447773942006,0.4098240409280586,10.127083376756321,0.08802666628247688,0.08075278878117835,0.0023820751173514567
57900,0.5522516540873412,0.11612016814000467,9.965302829743361,0.026599964974480896,0.07956844179259123,0.06979426544622407
58000,0.13767796218635073,0.36220208328735526,10.048387328277194,0.030620855610668952,0.07895130680002019,0.03190361102910547
58100,0.313546381764215,0.174593458454769,10.025525981949693,0.09807608741059178,0.008243769708218208,0.0775457928993229
58200,0.26569488939721575,0.5862356456497878,10.27177260154692,0.03264825209066148,0.04136994581750776,0.00041270633446020003
58300,0.5629227629181677,0.339078726074973,9.867906491259008,0.07495078656125666,0.04436519805089452,0.01905313794212904
58400,0.37420370294421834,0.24556229323303788,10.199590993936479,0.010864902975014369,0.061246215579114076,0.07108883954459369
58500,0.5318198143428196,0.33060060407721814,10.02933654630187,0.02462891875093022,0.07292506921097205,0.062448124915041425
58600,0.18958586484907727,0.47905744686401397,10.28833668529707,0.024459561665402377,0.0450494094003748,0.09402991677715573
58700,0.24450856867308576,0.43654805868031765,10.257326393625625,0.04523036374468861,0.035858628328746055,0.08988926642256578
58800,0.12521627644576935,0.15664912500071046,10.156510033254232,0.0880214727693788,0.021389384026092396,0.005363325967156618
58900,0.2704098685341293,0.54999619953507,9.90200818447551,0.09020783862696108,0.04714104672024976,0.07916985422713838
59000,0.19561851165674624,0.3437857740559135,10.282302233620253,0.049436893078766156,0.09142963450877431,0.010201619088579994
59100,0.14588689303675648,0.31802414799651757,10.187929933732587,0.046707516253164265,0.09721458505673451,0.007702045758667487
59200,0.33455165084018657,0.2286460186392222,10.247981004747166,0.009853843170885413,0.06146201498580687,0.07456710635577991
59300,0.2840736419973223,0.20013958031442972,10.211473352981407,0.06442660014462635,0.06870104559964164,0.08517750840670546
59400,0.2292945667718059,0.14081652434328715,10.154657232202187,0.06395914398985075,0.08407343347365345,0.04897736123258478
59500,0.21591587722333958,0.5005472951062638,9.980166727043246,0.016414886101736303,0.02201064045941883,0.0856978908632925
59600,0.1468284448842687,0.29390534755759246,9.904794176039987,0.03855292498869787,0.087464809524997,0.08047089486670606
59700,0.40061110479862516,0.568952853767665,10.235080255210173,0.0054562626324035635,0.04022821379041317,0.09208689184917046
59800,0.27874689790807317,0.14739704845190885,10.193174481166377,0.014023239174542713,0.004743837901814352,0.060592915192577104
59900,0.35322330284344816,0.4155178398666367,10.02872314631361,0.06296685123256487,0.07791583316312685,0.007394156406570174
