t,ax,ay,az,gx,gy,gz
0,0.20224623314077209,0.2263332574739735,10.006157921429569,0.04036199290380063,0.024215747797616906,0.09508895808236151
100,0.17854148088447616,0.3557348371121176,9.922602619397958,0.007532962063897375,0.0804057557660506,0.0840834180672993
200,0.5774709024671068,0.32251745913315644,10.108927436709552,0.0767957645113913,0.04151586520270108,0.07316656412706866
300,0.40268444394441627,0.2846077438144179,10.220451230901947,0.03314480604987691,0.012149847485548938,0.07353320196518523
400,0.29935988572410166,0.3113793562852607,10.162946081988503,0.02491423676374245,0.060760300346432455,0.04286840315046995
500,0.19539913530435618,0.2129881236006602,10.243320439789834,0.05919302775409366,0.08790826331408108,0.08864607261666728
600,0.28357585797538853,0.12705239423098855,10.141313597876152,0.014453576529317003,0.07215517060461675,0.07105139596919238
700,0.2815496097616793,0.5073795169225707,9.958942247499733,0.024055227087522404,0.09965012277129565,0.008681389022311215
800,0.5645278473594735,0.19493949656999857,9.97300248395857,0.09434710870149676,0.007115330385162433,0.006029408076000786
900,0.1609567083600663,0.34935086277891747,10.239862840916562,0.08738484061630883,0.018489417853043876,0.023958898854138225
1000,0.15175863721899777,0.10308717123195729,9.860879319895435,0.038153952427051045,0.08530077057966848,0.09609852240242679
1100,0.26145595923838016,0.10619720710062516,9.909207115118043,0.01470455940203188,0.03244598081130867,0.04323345873088463
1200,0.3735315337201366,0.5927814147624328,10.150435009098654,0.012697112639376996,0.029307912930091863,0.0228713345451672
1300,0.37639379522473937,0.4277119863906178,10.070262807889549,0.0072532402318081675,0.021191912140326254,0.04290463235016726
1400,0.1832148210195698,0.22846018101065166,10.064306905609975,0.0312837424069497,0.04182987828850419,0.08119701122255923
1500,0.5034503127268015,0.5177545095146668,10.1605480664433,0.009883333715440435,0.08822640022063515,0.006078015994283659
1600,0.2402230571941383,0.5389177153621638,10.139210835540869,0.06799863261119647,0.06506030944710528,0.054383077854104095
1700,0.1426677610294497,0.13113730138921162,9.851113065212461,0.021074052084083108,0.09584125001030225,0.09091020892954048
1800,0.3570521581852957,0.4281282129162307,9.85060740658802,0.07646075211173115,0.010000711794500617,0.007126576555615161
1900,0.22903367094384683,0.17769003742219983,10.239834641131436,0.0010357250461896506,0.08918381588965206,0.015095017999344729
2000,0.19418567057314937,0.4257962067600157,9.939506153616328,0.022983682733811506,0.04670138376464555,0.09988406901246842
2100,0.3518860406726191,0.38764860572508186,10.164338077558162,0.03932980920309359,0.09050778940678329,0.0629421633979969
2200,0.35662063284704293,0.589513689799838,10.122802160747442,0.003045847087003406,0.030500928178127575,0.06264418287518089
2300,0.39689198177504637,0.4975310220280965,9.905616247415482,0.06177362939725187,0.0010286564264629261,0.08761920717542976
2400,0.5938148053252262,0.5416220615759925,10.236248792037678,0.09919962769694472,0.09478100811016729,0.02742845258104011
2500,0.36715651518797887,0.37899698254618375,9.834856892698909,0.009339217787646749,0.021620967649839885,0.07429044323556873
2600,0.5629470565476792,0.10450352642974861,10.044393449364188,0.08790820990641894,0.02951982178363475,0.019830895531318907
2700,0.2341662093398517,0.5998209843574961,10.176814322412582,0.05378853526908678,0.05800295080907748,0.08395828022665706
2800,0.38910276951368317,0.5803705029591937,9.907642609190544,0.09142310748757154,0.05686446284979316,0.07810758276335963
2900,0.12815394431080226,0.5394273852874648,10.085702479804139,0.03637134087870022,0.033410516446877016,0.03975041120905879
3000,0.5157515170874448,0.30178707837806573,10.255455952719174,0.09443642576883371,0.04345354522036659,0.02800250847557141
3100,0.1398621976297786,0.3913186177306339,9.984675193195327,0.024888510949644962,0.025752902757503738,0.033665506550352775
3200,0.1390207229895559,0.25541346033194523,10.003274187177935,0.007955228534232984,0.07066119600980664,0.03694235631225841
3300,0.3563696337503304,0.35796978410685454,10.298692245645299,0.06373829892245929,0.010843775088263397,0.07157535909859448
3400,0.4798847351421578,0.570946910515116,10.15560621713627,0.034084576186647564,0.028590428728940832,0.000606916602726193
3500,0.33372254229642473,0.4916399923359617,9.98130829334658,0.04848891888160692,0.089959709765848,0.07146222520270117
3600,0.2806285445650385,0.39980637950904885,9.871070098162841,0.03479197384719246,0.015570150774023751,0.03803980041615512
3700,0.35628426921051926,0.44565045989857843,10.226467838596431,0.05530556693455953,0.0932782900380345,0.012386155582351522
3800,0.47401935412987983,0.4694963036171491,10.12888774882536,0.0217707235980496,0.03423704701319511,0.08714481575339009
3900,0.3852370035754338,0.4432675935904652,9.927728720163518,0.053217875716584775,0.05416539769848529,0.05002237908583085
4000,0.42058728889621566,0.5512396702054119,10.192986519963686,0.05117277158403789,0.08279468670603155,0.08915395544940351
4100,0.20144171564371308,0.41325752411374694,9.842853114375664,0.07088703758378916,0.058223167275696756,0.053037520842563225
4200,0.5570013647083965,0.23348455951590077,10.04384525686626,0.03807621080887457,0.06164763228088417,0.07502696401029044
4300,0.31244191872825855,0.3708199028247683,10.133519175238465,0.01601048437515302,0.03633472824999883,0.01571120592705839
4400,0.2904452201110077,0.18572007756662498,10.061516181203231,0.009948822798339375,0.0010187131446466103,0.0803288067193853
4500,0.3588761155881014,0.37930766801079685,10.298741344139671,0.058102161036828304,0.014660677515834653,0.05810819787094184
4600,0.46640428585516536,0.47689506941129656,9.80917621713278,0.06293557898603772,0.06723693322688849,0.08057563349555165
4700,0.12881352695592316,0.30850980058598376,10.291765976734725,0.06726547858387769,0.09031919826771792,0.01941978784729992
4800,0.4776498082956584,0.4100326501964947,9.853978690162078,0.02535245323044707,0.007000230907760641,0.07847386337116102
4900,0.576367425806164,0.3669416389226011,9.900259278498476,0.0632561259411884,0.00850810766303416,0.0361987408052322
5000,0.23721606415388583,0.15948017115531962,9.906513002473153,0.0019770973597530773,0.06754188439597532,0.05929122727215385
5100,0.5153276017997585,0.4602003926844518,10.095281899345727,0.0016412369972084286,0.03379698657156662,0.03814846807974322
5200,0.2928199050287198,0.22275877126087237,10.00131910450658,0.02106057215689704,0.03108036418425878,0.06084677444240425
5300,0.3563887263703215,0.28806954864226886,9.80849625631159,0.09712462631480025,0.03724541087385204,0.004621051504287876
5400,0.45763293825864415,0.49180443451853106,9.941740895022384,0.03753421097490866,0.0465805734342048,0.0810337432973507
5500,0.26540664300142447,0.21786761676021013,10.084835543021056,0.09468069660015498,0.029111403515892156,0.010058155522408864
5600,0.4231317857107887,0.4923636931845493,9.923154690463257,0.08668427614590031,0.06506200777441726,0.01812431085198719
5700,0.5965493053155952,0.13170033828696456,9.8154967615189,0.043817483822295666,0.08491959607131587,0.0799396822161423
5800,0.47515112462563525,0.3297344838862133,10.230618244681962,0.007696359430599509,0.017607507405477008,0.03806232883743491
5900,0.40691230279365986,0.30997165705593055,10.213205230821908,0.08263226159813546,0.04368262631035739,0.0652434975204527
6000,0.3590930500076319,0.13611638988995609,10.189792542507844,0.0013688918222398484,0.06669247963198204,0.05949755376291047
6100,0.25754018797740974,0.1900338346888207,9.83939700288743,0.07570237861194525,0.06671724146468923,0.0018916267816358912
6200,0.3434055870546462,0.2322645944781835,10.158436832391095,0.08738819144589156,0.03239951466578711,0.09416207088275234
6300,0.5536893921195345,0.12505518692044246,10.285153176831619,0.013717446150457236,0.09664733052818997,0.084658094588923
6400,0.4050694705271539,0.3966371284989221,9.867019829402372,0.04719266680719968,0.05247126303519315,0.059755332471042914
6500,0.17645195379823134,0.37904753183708806,10.127234092610278,0.07873523022159143,0.01794484460590966,0.0015389841201140621
6600,0.10546253061491098,0.4315905717435722,9.995342905344978,0.08478571427515229,0.002147040793539068,0.04456540616709259
6700,0.2920860960700352,0.4682389498374393,10.05596556388072,0.031119266167533733,0.09773016541991224,0.018815656537265992
6800,0.3722373625470434,0.5283679559870742,9.907232121255644,0.09692197327882901,0.09123698834550933,0.007475614159274557
6900,0.35539107449618257,0.3614749333563865,9.815238989249224,0.08476132513172174,0.014029416467095435,0.02074824268961154
7000,0.48333487319457746,0.5329954481497399,9.969194098248895,0.02141301261811487,0.03362234195404167,0.08503866730193638
7100,0.40110759837682686,0.14089753552323916,9.86417813164151,0.03524586228549893,0.046589474973641666,0.07498928256529579
7200,0.35492701537738547,0.3297105345275453,9.801916682817568,0.032134206096809885,0.029860650177533123,0.07516978325797485
7300,0.4196825665525802,0.11069210123089193,9.988346725332049,0.09051139081511232,0.01670407142499104,0.01834251002779527
7400,0.5517264677951571,0.4232211471611754,9.804427186715047,0.04041233774275391,0.02601383008434112,0.06494663177744474
7500,0.4181952284059449,0.5093131082396674,9.937232348012417,0.04220796898697898,0.0885405387285414,0.01287572978138517
7600,0.12447000988493365,0.13108069497786742,10.259731583863834,0.09037881326948738,0.03519077249611539,0.0673020886689199
7700,0.14279940207768269,0.2669502025463858,10.25052611695666,0.06319440634531674,0.09360802687715986,0.08541200168781206
7800,0.26917138300914834,0.13789974328190532,10.046529057028337,0.03484781748959616,0.006634292098420636,0.049829180188135896
7900,0.5783349449914601,0.19159038590523977,9.974015183112224,0.056600855484903505,0.061883817777249266,0.016790285891298752
8000,0.42509509925072697,0.5957656943379882,9.831083027161814,0.06852068280654998,0.03949267379677876,0.026047863344688407
8100,0.34464689690549655,0.38733073450176725,10.29591769839968,0.04979586518383057,0.031618989337163554,0.012084109813874378
8200,0.5756617918810145,0.590632141764668,10.142379547591316,0.0024531517816085424,0.05482095170721732,0.07443229826437499
8300,0.3253498393394223,0.2564794356644535,9.877410043778587,0.03683079921159068,0.09956099157614673,0.02368330127507008
8400,0.14219659439293023,0.4839635181908223,10.292744917204969,0.013185999438153928,0.09181097877753491,0.019375400954320422
8500,0.10493091233984456,0.19012378143863215,9.946768010739499,0.03176896651168381,0.06202015428483522,0.07084625649746391
8600,0.43311169735877575,0.1316218260430407,9.865312125231506,0.05410682199513427,0.06915279703024045,0.04630378443120742
8700,0.10933327484455682,0.44348094395157045,10.117255986008074,0.01683738440287328,0.017570472508218703,0.017540137620774866
8800,0.5048853557520737,0.3861628613036787,10.257379857941167,0.06020373115998719,0.06146560509171292,0.023027669267606167
8900,0.43832456068892334,0.30340311307333223,10.141695565301909,0.05347730508421435,0.05436488908045563,0.09477993407273248
9000,0.3791899125826709,0.24686080448788303,10.21485894972211,0.009875211271921659,0.027989389429153112,0.059607392068381795
9100,0.4810919553016637,0.35932584283934643,10.256784225255755,0.09362460561271872,0.0797591796668613,0.08607557205373088
9200,0.3460610225079631,0.17103799403305195,10.233307885112175,0.033017302296096895,0.03930774172026938,0.0926328201654633
9300,0.25029217972274465,0.29680374431079826,9.959941346921813,0.021305066763267013,0.05622329142026849,0.019784057969319438
9400,0.16684845558305259,0.16726428768046767,10.026022468666394,0.03447444844867949,0.012007297593464373,0.001847999343884077
9500,0.22478970527038247,0.1849783652794406,9.965034681178683,0.001834564062046784,0.06774908471396791,0.0285329650692289
9600,0.5540696334614553,0.2515462917697834,10.048958974501494,0.0012607983970914895,0.00813354859186265,0.03199670723067615
9700,0.13084163640627536,0.26004320128308545,10.20829033512814,0.043049676631371436,0.030639152500010793,0.017781584444827202
9800,0.5584353381286687,0.5620563754479261,10.116745393402091,0.0889511015712193,0.05633707464726465,0.03154860791378603
9900,0.2062896377635373,0.43457434599543243,9.918773338273667,0.079452272518344,0.09451500303678789,0.033708299497869125
10000,0.2509268136187697,0.5358196813342544,10.132369530855309,0.013439082025451621,0.06266420066612843,0.02520661399997708
10100,0.19620828493315448,0.4254663968849216,10.25554205357499,0.07369940102334473,0.01566880187664471,0.09552071065453077
10200,0.17110825878124888,0.26024733410399936,9.975174560318589,0.08400540901830432,0.03772502745963089,0.023518890692048912
10300,0.4334384430976542,0.21590121879224974,9.816949063083499,0.0733347451842714,0.028991943080083016,7.97426317473704e-05
10400,0.3221355250998206,0.42657937961005654,9.893253220738577,0.07574142453438251,0.0951195769917636,0.0554546922729266
10500,0.43790338467019563,0.18921557398489966,9.965256063300304,0.07651714917548735,0.005217351495698386,0.09788194716179624
10600,0.30161655760212547,0.45256947030518135,10.028799953331147,0.028073994816855463,0.08343434390395232,0.050268214170307614
10700,0.36872356544890084,0.34242189418165414,10.020071030195991,0.06800853437284349,0.061462434935726444,0.04819808863119133
10800,0.1535187388714875,0.5261109305608965,10.105608604238627,0.031293119983114896,0.003232703152544825,0.05830853378522252
10900,0.30795184040308843,0.5500192388104453,9.814750067842578,0.03117562634184491,0.025863781687335854,0.028545383458737496
11000,0.12303422613733514,0.27327316779845734,9.963255002273739,0.04293688670805329,0.03807511492062399,0.05014869110081706
11100,0.2326916288797353,0.15245651225338316,9.903066374221975,0.08544800150240481,0.026828625775153617,0.06511660409019274
11200,0.21976375018654445,0.18884967320008458,10.142440166257256,0.07020226022628816,0.04866830861002395,0.032331747911144196
11300,0.29121274577812484,0.12060478757309326,9.95644705217832,0.06152636625116312,0.010441272737481168,0.054355097140977394
11400,0.5752639651617426,0.44885640738289057,9.958940622158874,0.07164057680159526,0.010865629120400856,0.04276848089812803
11500,0.28917756128747174,0.4587869263049603,10.291969271811016,0.025959314997112015,0.06025140259682882,0.031021066597770222
11600,0.3535543390369523,0.3834044734633132,9.916212849587529,0.007794285929738043,0.07000549693896556,0.06225107557133528
11700,0.5608717561149485,0.3437858499362004,9.838603422555398,0.018900481216746524,0.0024406850774979505,0.007575947371805003
11800,0.34108920639577733,0.40055989582929574,10.087021323659728,0.05795995796714798,0.031054142795417707,0.060765670991391296
11900,0.5799281130055249,0.37658877703891147,10.079915545250612,0.08159625007241854,0.04627561498427305,0.057681868953414886
12000,0.4507730603107811,0.2081783538902545,10.13696532429821,0.020688104664237275,0.09240096540982518,0.09246068848531296
12100,0.18550881495242424,0.14113201925605243,10.02273986032981,0.0953707053507954,0.06284768756966473,0.09971874796680776
12200,0.5547465750938498,0.3823528514679726,9.961159925605708,0.008284437459278671,0.0541091420301634,0.004477221159926392
12300,0.2832504806495071,0.3064815511521335,10.120925331760093,0.02484603329240307,0.0883509007002717,0.04091744906258998
12400,0.1705683429394728,0.5246778956426978,9.847768727242872,0.05032157356136755,0.025871642821035257,0.09172699219995814
12500,0.4804881628519434,0.3793965120396052,9.848361554569312,0.058288977453878045,0.048912714794003054,0.01094470233574123
12600,0.16947706047820363,0.13073381573712314,10.184050795269016,0.08618092818561436,0.04932551845560271,0.040752795792512765
12700,0.4851342575220817,0.42987183283329267,10.221351250782002,0.005916941289761168,0.02571988834104291,0.0433670490737111
12800,0.3262292159256285,0.5596572828688916,9.829419432297785,0.07005901428726441,0.0310975842360397,0.05302509341543147
12900,0.41261197087361967,0.1895370131199016,9.827153963532405,0.051187232587167036,0.012034815588951343,0.006726788063225087
13000,0.12280689618683507,0.5440335521825439,9.910380810258244,0.07822118960555192,0.09197472500632221,0.007243077838798274
13100,0.5356341159659775,0.48534997085047427,10.249019482429745,0.014581941304375868,0.02169763639759771,0.08600214413913555
13200,0.4145468032362417,0.23973489433236458,9.833714233018238,0.07540713661803666,0.049528780200290494,0.008035189043074287
13300,0.21251984678985322,0.2979392956648458,9.926141027207189,0.01239905099504246,0.055455431529624635,0.08261877672584349
13400,0.4020163679717038,0.37228063536901657,10.295800667407995,0.004371450044199388,0.04502745670223675,0.09460741899148412
13500,0.105329459669012,0.5690132345297029,10.09116328775127,0.05154115978514959,0.058934268956919035,0.05384703948646585
13600,0.13181291791923042,0.36567509928460107,10.154151124273424,0.08140211993775365,0.055703673744529184,0.028558543704837003
13700,0.5677924327575634,0.43373079257736213,10.240252109947814,0.0455452949224338,0.03668314444954154,0.021469993692440726
13800,0.2536910833084608,0.5057428917992176,10.046531129386349,0.09267201903568151,0.011020766816630313,0.006213701723236676
13900,0.2663732787813784,0.4702457178667864,10.009180055971463,0.028015632415461445,0.02262130701416053,0.05714376521885725
14000,0.5628570477848603,0.23567875329736468,9.904318163769755,0.028312135336570635,0.09284605195990368,0.025593506145848023
14100,0.28895454978964186,0.13684943807136066,10.241257325128792,0.08762455804386805,0.005088186655412031,0.02337067795330742
14200,0.5264740575381023,0.2879846681642816,9.855016882905907,0.005951050309847827,0.009400459118758399,0.01738545805283851
14300,0.2752129192111199,0.18239047745703416,9.884879710914594,0.0015690761987048108,0.015251156089032315,0.09812964587755145
14400,0.18864345629265913,0.4828630074415068,10.12343347586955,0.06507729380795589,0.0398842447717805,0.07237045213345698
14500,0.27192603772679746,0.2612060145234797,10.244982469258979,0.0995064784612854,0.037789443627947665,0.06859427011230387
14600,0.24061058043495856,0.3976736307494264,9.838668823099393,0.07276443525171229,0.018533736906497324,0.010513589848953142
14700,0.3248607457699948,0.21966394196257186,10.075295963888237,0.06513391705224965,0.05352428992261246,0.04267419094949625
14800,0.5358121083452749,0.3750207902337408,9.959317594644219,0.055246306507363174,0.059714114208314566,0.028632677942724595
14900,0.46635765544656227,0.49456921996359815,10.124474562301891,0.09608630390766626,0.051115754908621205,0.00460006471984149
15000,0.4218711719012529,0.5042580799976755,10.232363920605952,0.09795066967983816,0.005706366829595977,0.06718694537026965
15100,0.5827435239503845,0.5099300603142506,9.942557489223615,0.08564775550473304,0.09881139441932009,0.024721782487473254
15200,0.34194963056619787,0.19700875346666027,10.073652249256085,0.09300371690904657,0.01713398634174871,0.040814536896537836
15300,0.5467149093971434,0.16593143484968162,10.09056463487718,0.062295795434542126,0.054199765454892926,0.01942328990350485
15400,0.5152412214274631,0.23360783565642088,10.25833857756723,0.0839966238164252,0.03331103118846823,0.04488561921630684
15500,0.22071895798303112,0.3198418134862331,10.267464906091787,0.0789581185856173,0.026403168814408674,0.06542967335973532
15600,0.48916326540649735,0.3192593597555049,10.087240202244484,0.06018162289146239,0.029501631201447033,0.006430537651144475
15700,0.5262935639947366,0.44676855235923885,10.265128308938902,0.009822014268471914,0.024754411931241317,0.05669625071968877
15800,0.45851259866663896,0.1756703397426839,10.02295181952242,0.07575606167110283,0.030163417695493133,0.0626920843164578
15900,0.4908855280494363,0.44620627969165483,10.072217019623102,0.00020122863091432964,0.07492571204496566,0.004983270866693024
16000,0.2197034151509588,0.33490568616712435,10.267303354530467,0.09276683249609687,0.030096078341102783,0.021028349622416433
16100,0.5933262081888797,0.4423483547466047,9.863135879437536,0.04086671208945867,0.08074130273172837,0.00432585936837131
16200,0.5569727442874123,0.24126661628530835,9.938847037998997,0.09700102276494117,0.04708429035017925,0.04710084408566911
16300,0.5085657195715075,0.3250149399917748,10.292931080550018,0.026005581420816472,0.016871344055334258,0.0843183991359844
16400,0.5702290445146202,0.2355960130137771,9.868943006899725,0.04198237323499942,0.09577555786496302,0.048734663440450826
16500,0.5116593728585725,0.553443176456001,10.048870663798184,0.028394921495783033,0.05566997228607789,0.07312438594324039
16600,0.26704807431380095,0.26621402103750325,10.285618744968557,0.07463631400439735,0.08945445326527357,0.02556902287938545
16700,0.13517591877447957,0.35366666858967977,10.02405309015155,0.057389303951804076,0.04156538766311873,0.0303341608317087
16800,0.3860538013094824,0.44919881090219693,10.258026936138597,0.09696234729589111,0.051865596436814924,0.05966355834478056
16900,0.20230014535768961,0.5382277752785255,9.834844280681187,0.08900905894336854,0.007360907895357639,0.08750063800945979
17000,0.35355820082433287,0.2608123853793155,10.157729212170436,0.0652222337760631,0.04053679332245422,0.08566710821809682
17100,0.5756225403175196,0.4923856810146926,10.149654299724816,0.05697218122361093,0.05634740711959098,0.0032953454574719877
17200,0.5080911259897201,0.41922433939923875,10.214194890313786,0.09651238041122605,0.03448182212868297,0.03497984943917148
17300,0.19316184463122024,0.26957591866478214,9.812690775373353,0.07134580033109164,0.03432308105619704,0.0377641626148279
17400,0.4309073922584321,0.2981744592508161,10.279675060095796,0.03459768595684364,0.02893733009325914,0.019414390121870673
17500,0.3861376565120238,0.4955389957501385,10.23094281514389,0.06733156032292413,0.04281180534636108,0.09071965089488539
17600,0.24315473810127672,0.5158470670652265,10.19348875200313,0.055211538203660704,0.03746856904988471,0.07858290277019592
17700,0.33219256379956175,0.1656052574628256,9.812510167598651,0.04846390671188277,0.08900393752934221,0.061823895237747756
17800,0.30580240739287,0.5631316145164764,9.848113119638898,0.0969330041553716,0.05809865682153027,0.027442826519176546
17900,0.40056783120571815,0.3182543235551847,9.894499782134748,0.02834572754179028,0.027245567248310343,0.04483398310960023
18000,0.3371608858671764,0.4489431363917583,9.857435474942948,0.01595817082388572,0.05766831138032619,0.0025400740068027283
18100,0.39149534927630725,0.17613377451716197,10.07034517555664,0.05750226435079983,0.01407352119188715,0.038213142445944454
18200,0.18436266093233353,0.5911732370972629,10.10893451562513,0.0060549395678511034,0.0386830307386892,0.038332291422247006
18300,0.46867523570579683,0.5598026398689747,10.1525725840843,0.0817712067326203,0.07083098312828882,0.06374253294563312
18400,0.17931176945659158,0.40218955763632813,10.042575955559494,0.08826265861315584,0.061448590402905734,0.057743960984114766
18500,0.44659534079510943,0.46160455440683534,10.093481470369309,0.09500405400123875,0.02328781417209759,0.02555558464565312
18600,0.2579603704217093,0.35076078339152195,9.924339528139253,0.018008490928497056,0.04310384852617003,0.06478069823606232
18700,0.14069558375370725,0.2816474562392416,10.11319309562716,0.06674037399248865,0.08273208867325745,0.03784943319830911
18800,0.5787676113003428,0.41826493299902157,10.25099695756092,0.04031365123998775,0.02838122931177202,0.03276759909974292
18900,0.5115423475979046,0.15828951750125217,9.865621416690603,0.04794847764896776,0.07028488220234655,0.08710074665732917
19000,0.21906512701043548,0.4415702495182202,10.202797546649423,0.04234103446696366,0.004306110059147195,0.06293003590023664
19100,0.35135656415924055,0.4707247332190446,9.883762254175872,0.014559322276274857,0.04836871472144162,0.03250352761313139
19200,0.11878746393659759,0.30266787897227465,10.122809968364338,0.039024323362021884,0.06607988936155165,0.03060418683205727
19300,0.5825933704548953,0.4032280678275527,10.156683858399125,0.018224986906427466,0.05866448074444696,0.013059906855278825
19400,0.2253175534586178,0.48540207335482366,9.80488967534397,0.07132966314292224,0.04082768386941596,0.08979449668145328
19500,0.2624628496374619,0.3699500777441167,10.23406033363263,0.0942612532546508,0.05695594307537674,0.006478319084305995
19600,0.20116642062785264,0.21056388682602942,10.214313825141373,0.06763606008534061,0.0242552216995683,0.027919061957282765
19700,0.3026334763398517,0.29989628568327487,10.217454027105529,0.029787652185671445,0.005026242232673517,0.08039600257972604
19800,0.16199894834224074,0.5724402413438923,10.245819416220154,0.0628252135842739,0.04947924373914367,0.020983120859812965
19900,0.1327218841601326,0.3638373079652084,10.11691581825756,0.039353869161958877,0.0047324120015462936,0.0395813730612937
20000,0.21340741567873625,0.3336504003092149,10.236424898239129,0.02602141460526497,0.08627849438280344,0.05695246622380762
20100,0.5789030418024603,0.49087259865524335,10.139093904520902,0.06924303989401247,0.019197906195743266,0.04952148437559572
20200,0.15501745991571528,0.48467997789809636,10.034649626216451,0.04780247740654869,0.07562596283660622,0.00033990591779392565
20300,0.1570590616534058,0.5586593235905665,10.186247215175326,0.0054090740381812835,0.013236601624700407,0.022390425503105483
20400,0.3858359083843461,0.5116709327520383,9.820862841740597,0.06656030712647638,0.08798234533058558,0.07113259062700865
20500,0.2578637925210965,0.4392794914564552,10.147147361197339,0.09788757284231886,0.019846460341951422,0.0678206837674206
20600,0.21419835358817027,0.47961412610629073,10.149855617026768,0.06178815865638661,0.054443373327028116,0.039875231520820044
20700,0.19557973415886906,0.2715483129169103,10.270251612381912,0.04050408795018232,0.020336692361828924,0.005599501894642556
20800,0.21106733405550768,0.13194879474273077,10.05901591023438,0.08782108298782743,0.08929969169119881,0.07656010657786425
20900,0.3895867693909587,0.5087407958224639,9.858682491525135,0.015674146749716046,0.01223147196893819,0.07406398141496351
21000,0.4729568874475495,0.11325177591741895,10.244484028152211,0.08773735808530103,0.09214399156611137,0.05704691843533188
21100,0.10741395230309234,0.3719233081155018,10.027934821839077,0.03764444247605328,0.03354318807355895,0.059263301645909996
21200,0.35877886106836354,0.584075841801767,10.144744067250349,0.009038893464641673,0.05165983548117075,0.09713288327994099
21300,0.3777416716918418,0.3301385095678002,9.976149478347761,0.010786772450681527,0.03781624118562307,0.04987725113805491
21400,0.4082939576868002,0.5049898434446137,10.225820422180561,0.06339442151157382,0.0875767850084957,0.0684053399014246
21500,0.3611243221697208,0.22215743496278986,10.031287743192378,0.0823201489546012,0.015108765601251318,0.07674324819874655
21600,0.1250129981215349,0.4438617921703333,10.032725876805435,0.08621453051330287,0.09729561828394163,0.0735277320837883
21700,0.39979394936187684,0.39087481525222467,9.897421858310333,0.07503504698300421,0.011216972824933414,0.007201927274164599
21800,0.5117956361132807,0.13487285579854805,10.27870762845257,0.06785427363659764,0.04258046762877891,0.06308902957162646
21900,0.4487301571020923,0.308153378336501,10.091479324546592,0.04439001690156341,0.07378238627664412,0.052699369267736364
22000,0.5926556718215242,0.5739355782497412,9.814108450131535,0.010352171298121483,0.046506597117061566,0.05573819999668244
22100,0.3014310744092853,0.11843441525524853,10.21146067284993,0.08088254211708383,0.08848669121079575,0.022665030711738112
22200,0.46254437828048045,0.5887151292862608,10.159916684903466,0.06444554898008015,0.07935603988237566,0.09999107611961942
22300,0.24243543586763525,0.49328105578407655,9.803410500987047,0.07181057822690522,0.024800113915444368,0.010311599476738643
22400,0.12394954022240415,0.10343986344803838,10.253454263629068,0.027858164393035324,0.05776426310513641,0.08999596169838933
22500,0.12254244886394908,0.2549842145084906,10.129398677994718,0.028177025364484687,0.09865354210938605,0.0203525587642166
22600,0.48108740921544224,0.21910673488429597,10.255931638329951,0.07523722637600878,0.025932322084750062,0.05717565359006585
22700,0.44683487136489664,0.46855188043358575,9.961532124605547,0.013606258972302132,0.007987708579798648,0.06371317846196826
22800,0.2516200458394291,0.3079983503981152,10.033092429474616,0.08556656455162848,0.09339800219621833,0.050145419348686805
22900,0.3038863833165,0.41566779326439496,10.028048333393,0.07059793546935361,0.0954574891248019,0.04195383855814823
23000,0.30385214431741203,0.1945909725366546,10.294567805811573,7.806816943567441e-07,0.050957530900760065,0.05227278395680608
23100,0.15242316053553048,0.4423656615965095,9.934663418883215,0.024217395716229464,0.05707336766491925,0.06379503943360607
23200,0.2616517162716421,0.2958481286114425,9.906757103757906,0.07227537119210693,0.08540920284098315,0.07335328381331602
23300,0.23963243015544014,0.37358769536473735,10.133248218277782,0.026040653716315934,0.006572632655240662,0.044837978422455585
23400,0.22170092704263247,0.24677417075503874,9.989394279110854,0.0073619896072537275,0.002515353578274027,0.040127240817451275
23500,0.5804291598305276,0.1819760514754453,9.974058290701217,0.029937404101934986,0.03936724465128027,0.010062964355508764
23600,0.30196190623545704,0.4756074867568103,10.178166288740728,0.027172399628945666,0.0032777352156140084,0.04446445146742439
23700,0.3873814453859884,0.29995359745791883,9.811450029006746,0.026436473289999474,0.08698674875082262,0.04085191084194404
23800,0.3172702263703028,0.10413756100345764,9.878073793127522,0.010013351469290123,0.047025861889024904,0.03383760330942215
23900,0.33422347365506344,0.5827834594464938,9.81001522432564,0.04434370125490547,0.059623088357379485,0.07457452260546883
24000,0.5932093817784809,0.200877210048329,9.855900377841364,0.06284155780297482,0.04860540444001972,0.023116079742534535
24100,0.5811332338500184,0.12813113472205398,10.018923965386387,0.05618459070434434,0.030137489825569165,0.0807742821508421
24200,0.11027580472396517,0.12241022193482773,10.164190002237207,0.08613652087298608,0.04608316560278587,0.017777623229938234
24300,0.16947408387247695,0.4944357782552432,9.82063547342088,0.04689614813228689,0.04571227695982649,0.09432179231961474
24400,0.4123599844908462,0.2657160715040686,10.26123962496296,0.007190340700460974,0.00629511621112312,0.06541521074506586
24500,0.30319939696398446,0.21917808220517318,9.964100235965834,0.07865495045474935,0.0013647542137729342,0.0691129064011864
24600,0.3930548275565656,0.3693233371963466,10.146402306825475,0.037169849213948995,0.08922583181243368,0.03901782596405902
24700,0.2524036560019347,0.37708717831435523,10.21405717771986,0.07083590156582363,0.03777847082562831,0.04361975619105249
24800,0.4116644523105457,0.1653024987939111,10.287301527077242,0.08760568656711842,0.029265597505460705,0.03375769033393038
24900,0.4567726127883388,0.30942792050783974,10.1986295044229,0.06554953855242343,0.006843257241965828,0.0078003829925837875
25000,0.2552870476318204,0.10149843737458378,9.825261290484185,0.07831083322223317,0.08269845340894184,0.02595883451960701
25100,0.12952233793069098,0.17109377831229391,9.922843863513153,0.04400011357223545,0.05910161377826795,0.07464105550518736
25200,0.370927235418109,0.2086125227549834,10.160499909373142,0.049632244715471376,0.039604746398832914,0.03941870630758146
25300,0.1285709499786403,0.44594225810033405,9.898948786291735,0.061026802976280964,0.05592699491286921,0.046846072472740856
25400,0.49619331579432413,0.5739534376366728,9.899282205205832,0.019016534581407542,0.011041931447626186,0.09403162813284047
25500,0.2749926191748402,0.1598072052019938,9.862101618881725,0.01154549059330341,0.09577719762926486,0.021787478886466084
25600,0.31793567032409864,0.11236163430044491,9.877365743181882,0.05984395226973203,0.06192101098335441,0.04127592680391279
25700,0.25067458205408555,0.5256305527499208,10.060077154057296,0.05927554232517007,0.030422465556514667,0.0995969174330876
25800,0.5702809947643322,0.13745226115248113,10.11703205491534,0.0575248950442128,0.07118616347672041,0.05848119961351065
25900,0.5798801663403679,0.29694658673886776,10.113936355647585,0.043044930542062265,0.053461476602967295,0.036650270983359115
26000,0.25717739757198754,0.5157462366680372,10.153894681281482,0.010841648793347404,0.09785001446443607,0.09992431920244936
26100,0.46970152869678206,0.17426668785927316,10.158796801167785,0.04676214426337149,0.02562448462987963,0.006302583822689278
26200,0.4298431344612055,0.5604248839083635,10.017868589809089,0.0745014916454186,0.028969698509657905,0.036769729765894245
26300,0.452032238538964,0.40201282272920436,9.92458381214609,0.02541146852964593,0.00808703114717303,0.0380939182519146
26400,0.4505521955563786,0.30848799684713124,10.219922671683886,0.09415131452709549,0.0821330022446185,0.07439173617642607
26500,0.25414368315818303,0.5957936809165165,10.107572226932785,0.06842424860110145,0.07863713156971079,0.050072996197516095
26600,0.53187510371272,0.3577891261549768,10.214898650775877,0.05686966309994779,0.03360168003545625,0.0881340397078377
26700,0.28723391825324085,0.573348162472446,10.025983855673656,0.0474557205182034,0.019186396537964223,0.08904816296307005
26800,0.46075147491725243,0.36144975500871634,9.910913694256731,0.019503307074458312,0.010203044563924502,0.03558146497506143
26900,0.34945496236412976,0.14733644521565373,10.10711770534457,0.07408594621888129,0.06776390113511353,0.07883510897117733
27000,0.4911043777961944,0.12539536088842915,10.060286950885178,0.01824813751785506,0.07077929474953873,0.0973666785865433
27100,0.575841790851218,0.4938637398821297,10.076306327561536,0.009499660659126153,0.07840160752590544,0.00012761385781334678
27200,0.5579930398759957,0.18366530435607512,10.083248383155373,0.029069698974350668,0.07970639061222946,0.014654593954263752
27300,0.4025714105842755,0.2730898079222682,9.84397111743671,0.04044680440377477,0.041887667734987755,0.09280800227978744
27400,0.18177348407766633,0.11320383226885469,9.93443518460192,0.06220090346670585,0.06889072452753513,0.0846386448960181
27500,0.4961244298834204,0.3391864266618646,10.227662689397922,0.09243857526087856,0.053099424838752886,0.040247370190759524
27600,0.5419374830117294,0.2901176366223732,10.00453693123505,0.09831296036278167,0.05116645160517874,0.03102545438769593
27700,0.43784315997343104,0.1282474921008183,9.865589936450766,0.005878170847805376,0.0263386536901581,0.05899976690490625
27800,0.472187490825567,0.24190517103156742,9.875649335609866,0.014541338863541498,0.010342199701103795,0.0089740861365733
27900,0.11118958154445682,0.3373594066044977,10.20908562112504,0.08694839517531107,0.05432738733097136,0.09513512893530261
28000,0.4075906963569025,0.5291085479711453,10.203892225653577,0.05647716710259032,0.02950624968092004,0.09628956457706565
28100,0.5241692461444032,0.5746604775586139,9.958989779803256,0.09843885792946323,0.09462481174886316,0.00709529266453085
28200,0.20555530181308482,0.2263822837797956,10.124388170214836,0.08028159289995535,0.09519568740462615,0.014578751747208707
28300,0.5170539330777791,0.5509189517301479,9.926964621108477,0.09708621797716023,0.07199674334979798,0.005178041884566865
28400,0.21545298855809766,0.5236574726544098,9.93238869305724,0.036353007414557624,0.07788372138943182,0.06079337273625665
28500,0.1610464305921593,0.5120939204199025,10.298063462626937,0.05341044939499952,0.013596253160553174,0.08526200767444132
28600,0.32873152631528746,0.582238195156676,10.207763103841145,0.0764342552015749,0.004988010946745125,0.008440431829515028
28700,0.1899389521581852,0.27060120288567135,10.017673211331726,0.07364322815476886,0.06614297475982346,0.0070934122408483295
28800,0.15141258369018876,0.2568328509090614,9.94239331518924,0.09379271684705637,0.01231182180028827,0.02423092031731866
28900,0.3607347327908993,0.3850999517035578,10.222397268768946,0.08779028152144602,0.02550384861881565,0.06664390554609122
29000,0.13879271254770423,0.5966078870314468,9.92203372643717,0.001640130388625638,0.05634405033118235,0.09196766670294151
29100,0.5198487489741156,0.22137413143782395,9.867089347850847,0.036790277990029506,0.040169207977771106,0.09248438535413712
29200,0.1990435789337083,0.2993148976715009,10.116628727115437,0.06710377863110718,0.09455969376671165,0.060390744143046474
29300,0.2016487745946716,0.1948244034753612,10.020470809496636,0.020615878590926576,0.059660106640555925,0.04041384588978241
29400,0.3733377401157302,0.41933459689928965,10.099095029712068,0.03827773872430053,0.0425098378681095,0.023850358646941763
29500,0.5116575680991806,0.337865577350128,9.986006683180525,0.06571949005019294,0.011955670410812736,0.000880024432817228
29600,0.5740778181019583,0.3009651817723563,10.246935197501797,0.025246004817065418,0.06778109295684874,0.009148650364380362
29700,0.3102607172996178,0.4073598526173511,9.826404031183378,0.03612773264775008,0.00014146177889189372,0.000661437838739798
29800,0.4797769837614775,0.5868318009950291,10.214865037533826,0.01569539743021624,0.0939033762399451,0.04245411988375576
29900,0.3447672220614316,0.2743726483517881,10.06492215702433,0.09331745537325245,0.06896191939853633,0.02169587665312376
30000,0.1551818204604706,0.13197680216689436,10.148794409375377,0.07603997365801587,0.004705771497856926,0.011665848081142328
30100,0.16277025398218256,0.3211615175464325,9.84452563523034,0.03052418410100062,0.06726503816979411,0.09604302163770168
30200,0.15480660015720218,0.42780908418848407,9.811159279778838,0.017925995339187307,0.09269494862885673,0.06138865811958858
30300,0.397319585636421,0.5469024626891658,9.80398464123922,0.00571369758258129,0.07236944288061883,0.05949603092614506
30400,0.4504447555678144,0.36582921021217685,10.26466126085283,0.07725572791494863,0.027381514599358416,0.063314505233337
30500,0.5908310511024194,0.5899157070197592,9.98312883855425,0.01992885896473512,0.0115157683298579,0.04095043344310794
30600,0.2593923765063233,0.23354767844614108,9.953599148783358,0.0949241884899159,0.09902259126189866,0.001913709419975429
30700,0.4662458331033067,0.3979967730925781,10.237937518795375,0.002520096056069321,0.0488348265873495,0.017281276233431574
30800,0.1568996962843721,0.15827992729424026,9.823271096513386,0.08099158632525474,0.03125353159324822,0.004137071725194741
30900,0.5197929431314225,0.21579828460621245,10.27920020975753,0.05081481887624453,0.07949167634106963,0.03164007809625374
31000,0.43953240655569636,0.41999530707228194,10.169161062290957,0.0941389785732957,0.054109264034336114,0.07362261523336382
31100,0.31793085169498436,0.47306559051308616,10.17339952333618,0.06666224506057612,0.0497401778847598,0.09742004985183401
31200,0.5371653783709234,0.25959829795386147,10.151788701043994,0.04203303753167325,0.026645979076576898,0.0479385456175647
31300,0.14370466515537547,0.5641056055755528,9.900205910878531,0.04242946063096913,0.0021742149592639537,0.013407640936904565
31400,0.5757540817701405,0.5393819061178438,10.289205211908472,0.04630061515175259,0.0195225036654768,0.08975867925255152
31500,0.1898368749767209,0.22327925052528122,9.981819450058863,0.011080795943673883,0.07890033906889057,0.04628642496015829
31600,0.11150827365285079,0.3207641853903822,10.227292415696436,0.0890171819954651,0.050064011415606846,0.09714280000541856
31700,0.32632693095247256,0.12227797826498407,10.179242461015363,0.06660291187215442,0.05588182759142579,0.0554008305103633
31800,0.31901139723227034,0.49821163197981044,9.843738046140702,0.06873832375469101,0.08737571035371083,0.09791480365796033
31900,0.35999227816397117,0.37203901807062756,10.09988996332134,0.015531240111051248,0.05684437771584301,0.027310162375991622
32000,0.24257492137728118,0.538776840107839,9.960876190323344,0.023378214710131597,0.0595689852264975,0.058452866720425406
32100,0.12107846261317443,0.5966293334450892,9.85504375111728,0.00012653554447208392,0.03192727555044568,0.04832929467830013
32200,0.21430879937743383,0.16131884647804698,9.91388943434019,0.03427494781682116,0.06814245806916813,0.062483416863515134
32300,0.4388095923387333,0.4505842838775882,10.269158645802658,0.04831448393989055,0.03357378710146532,0.05766712479269061
32400,0.563232072632462,0.34114964944623327,10.232551932864615,0.02648590495717832,0.005199313684678986,0.004420971423176323
32500,0.4640205100272268,0.301173463184894,10.100873748912287,0.053271495261157535,0.05547660271652676,0.032952635280579644
32600,0.27977616873641764,0.21938263643823566,9.998321317671872,0.09185734597656588,0.07939010919736864,0.08305402200947189
32700,0.37515696167094925,0.11118913480591389,9.812498738359572,0.08093202775518292,0.044533060499923574,0.03648522105516592
32800,0.2766108573025329,0.4156172071863862,10.118030305141481,0.03092776787931986,0.07539608672525648,0.09101765768966719
32900,0.31606704615107384,0.3219710405089228,10.280676811017576,0.06839947285598787,0.0765663552609545,0.09810910213725327
33000,0.48370145999873815,0.5724988431318188,10.203158131905582,0.026754387853670028,0.025443845995623396,0.08678543193860994
33100,0.5233955622252984,0.20654487576732536,9.954874426412685,0.07764034892824007,0.09857661928535905,0.0931422513354302
33200,0.28348166309251155,0.4791585671846753,9.934162946650474,0.03517607612292142,0.08614715539207107,0.028822083904828755
33300,0.10911933710841762,0.5378950672054923,10.04221804654814,0.007171672870191804,0.0662351745668249,0.0063513465758653805
33400,0.36313105644211774,0.29585021814082235,10.287435751752243,0.08137419558924618,0.07539149273546793,0.07092879324850057
33500,0.3348881035344269,0.384138654450069,9.840501824579938,0.0894003769111166,0.09735173429395727,0.03978845732257033
33600,0.1393120210361322,0.1478817695604708,10.13782853157292,0.0332193345326005,0.04541674385288569,0.061229950204058525
33700,0.35949918431813443,0.3814426673740363,10.206485346821108,0.09047957115564341,0.010571009733977255,0.03611361660020034
33800,0.2111411659748695,0.11054802656525084,10.276155415937714,0.08525702847550519,0.013372365428235411,0.013018063073934272
33900,0.30400342412430437,0.4567540376397716,9.850862382944012,0.04559563439295446,0.05421930637073426,0.054527003007111385
34000,0.45664540895120354,0.5811618462025934,9.837300447107658,0.06951190806084721,0.07081626191357064,0.081803082706891
34100,0.15043250556745183,0.20678236244594725,10.063812093153555,0.03673180109583074,0.04174625623874935,0.08904254737357659
34200,0.48508857764893,0.17115467428830064,10.268687682336884,0.05157928094572001,0.06650796310893506,0.07502437175900842
34300,0.5127723956833038,0.37640759037482185,10.129159755391173,0.026627806269762102,0.006832202823205513,0.0787092339464997
34400,0.5917713510044963,0.24825567781229488,9.950432993934601,0.04032985668270102,0.06666267738299467,0.00599308578371901
34500,0.24763976109436633,0.47396719712562096,9.994782769809337,0.03421145045920478,0.04035284999116778,0.022333251701434464
34600,0.42545811823497004,0.18583200283095283,9.856371894888152,0.05149002044051625,0.08138750555763259,0.09356173140883295
34700,0.37494432231983243,0.36160291695216673,10.004558991148771,0.06361890938165425,0.01228841240382188,0.0740148193115351
34800,0.10258198781010539,0.3462285836590152,10.179307821818304,0.020097408650561612,0.03507852167675044,0.022859272805292343
34900,0.23040714818695182,0.31740505760086624,9.801363660609926,0.0398046866523507,0.01082190454789035,0.011612359329325674
35000,0.11455634197572553,0.3101681603893166,9.943234119868992,0.08247075105976247,0.08314604563500833,0.09115162084373787
35100,0.13739981643399882,0.4860937216350436,10.038579019390697,0.028302959222925618,0.046202047677900086,0.06381693629538585
35200,0.17133902138360516,0.1744104088176667,9.819362350903685,0.019131417202650738,0.01741307535283212,0.01095084011090749
35300,0.5939080605075822,0.19699606386571386,10.293168898326654,0.0592835524842456,0.07892553941208669,0.08666151900818947
35400,0.5227593165412714,0.14192648594930693,10.15749053380858,0.04311455263825653,0.03217539618953069,0.02952299860919441
35500,0.12193347935063045,0.3663994986364725,10.199614876272609,0.025728507319819773,0.0719963745518425,0.04478550577527718
35600,0.44249242410675693,0.18165246254797393,10.2086238633359,0.07745302861075441,0.03032002611476886,0.04899279377040116
35700,0.2754997342098958,0.5109757397994029,10.017975025374353,0.015006978515101223,0.01672053057628615,0.08794879911776088
35800,0.4659824280993645,0.5194768935922446,9.909967067275833,0.04328805217927553,0.09992372741581022,0.0888082473420203
35900,0.1024212385512007,0.23105835979140368,10.040747189497617,0.04803121520972799,0.04737236117211901,0.0343410220021401
36000,0.5767293252711798,0.16328720892061635,10.221931255648137,0.04670047703745102,0.04396993317433504,0.06810436600884204
36100,0.43066813968820494,0.42053554686754047,9.869558056156928,0.08397100919889379,0.06536611595298716,0.037057152840070516
36200,0.5114435729117293,0.16139589707231042,10.008472850661455,0.0317456893855841,0.02638326575712804,0.07105273230907859
36300,0.40600257398923634,0.10279904364447487,10.071724233949922,0.042391782386599124,0.05277741128268039,0.0929252777537229
36400,0.5991582127187948,0.2135838428200452,9.820849389927671,0.05271146222213746,0.0971950689498533,0.02386754567985021
36500,0.28065866751684265,0.5108200500098887,10.238274713588515,0.062433713629607104,0.015508861498028792,0.013347868729852264
36600,0.3510862948975876,0.5928232208402462,10.216346631326576,0.027496856894121027,0.0692646725853522,0.015536869854884916
36700,0.5450895491892348,0.18097426094023664,9.918630254425336,0.09841644638993174,0.027110604275369432,0.034900680252172835
36800,0.3589472123027301,0.30756625820857797,10.076087987638182,0.006246339628211828,0.04852304982300576,0.09917291568227615
36900,0.4672963921704193,0.5513002760891285,9.991558489723962,0.03515195458165167,0.06569913130275956,0.004089626561294724
37000,0.11427359279805274,0.3845716306051358,9.906173736168878,0.020847451390541852,0.09134905739236222,0.04231153603159004
37100,0.27474038237585385,0.3357788890436104,9.803671168286511,0.061612880689584565,0.0776854514941166,0.00910327032041166
37200,0.4228624177071093,0.3591997724313164,9.971471688017916,0.09394677133578379,0.09133112694782552,0.039717695341539655
37300,0.4372580405990867,0.442614598293928,10.153817741412832,0.06527564776786181,0.010423705223336821,0.039652360348139015
37400,0.43890301536642995,0.4870035770882938,10.241401898157726,0.00551831835154617,0.09230099650158122,0.027304921871062506
37500,0.10436044503467165,0.3851245984553371,9.836231143152043,0.04201016752694236,0.051423161595193216,0.012902698655335276
37600,0.5460060122823922,0.5163001434666564,10.023548637537209,0.09209840796888535,0.03765571897965917,0.092759254106341
37700,0.32271030758881636,0.5162549324845351,10.035081591797619,0.07967166778802573,0.07029529942805303,0.006789467723152954
37800,0.18873803295974942,0.24031318644747904,9.978783657079513,0.04331983125862698,0.04760126551337793,0.019534631572133657
37900,0.45057736626336553,0.29694890280276764,10.122385984512968,0.04940229921587767,0.054722620856134274,0.0472242311814329
38000,0.218170988010065,0.5781980222903287,9.93467661131631,0.009928630632024005,0.09909750902550131,0.09250530555390941
38100,0.20246825818704414,0.5423935881401507,10.080711499764961,0.028613361662477934,0.0942042958422571,0.010629456979377151
38200,0.5200834936979423,0.3501015814437064,10.258187714329551,0.007906725133080229,0.031320946218153546,0.03869326398871216
38300,0.5176973717059452,0.5146767206565824,10.11582874724308,0.01920935308047408,0.04066257963073105,0.08681416064780131
38400,0.36156116049149156,0.4838469610998436,9.810423408669394,0.06879844867769651,0.022701566220788384,0.09432059175623388
38500,0.4386106794567054,0.3310198607968342,9.872840632186499,0.05290678295926187,0.03010687938353426,0.05599601715162514
38600,0.34874630542683505,0.3460809888772135,10.226765334726355,0.09819138223810102,0.0870375416171768,0.016921162152064007
38700,0.4321662802859355,0.47934867715801543,10.080113718819593,0.04702546817534257,0.01595421735762732,0.039996749940785975
38800,0.492577353807075,0.4826125938176339,9.916914011787329,0.026987884702422305,0.09478502126541766,0.060349618301066325
38900,0.5845636472240923,0.5655223475176051,9.929262756095511,0.09844327759788239,0.04996636974228794,0.06670513369434539
39000,0.27284499716950017,0.3303989617269403,10.06860579014924,0.02760725885519898,0.08702038373341955,0.06935061316034036
39100,0.4315372862531853,0.45767045817933216,10.244272188709797,0.029972259750645006,0.043738803270279694,0.009049973468214446
39200,0.4258782816200226,0.2273016536342042,9.950401535052464,0.0252382033440126,0.019071642474850714,0.06958575018711144
39300,0.3225465092304055,0.3249638938102306,10.23810896151745,0.08895303068668113,0.09398413634620323,0.0008933971612677949
39400,0.1102675463203138,0.45652920862841784,10.114524821764835,0.056416037116856776,0.07183602206065297,0.09434539900378415
39500,0.25291530292284836,0.4827911100947876,10.223553267811287,0.0905990927523057,0.01583072132752026,0.08399231910973753
39600,0.5498795202275585,0.12313866748274058,9.969172357279767,0.0029050234044375903,0.04103862972467775,0.05635637045216574
39700,0.39707986515949234,0.21010424853931955,10.142797515711038,0.030531069424232074,0.004991272625746269,0.08482231139512796
39800,0.4337684346167555,0.3867537348084771,10.261242951951408,0.018957862406597983,0.05062840485703956,0.0020318666988065393
39900,0.313615377317366,0.2921081690115157,10.105832231097214,0.02580818653488999,0.06565680789545952,0.007168371540492369
40000,0.525963330734072,0.29719004193056875,10.06371529849922,0.03410802571602613,0.06103248253486755,0.05355072264238753
40100,0.1895264476662005,0.2946063386360026,10.129358257176836,0.0282466003694857,0.08000314234706901,0.06189838413727786
40200,0.4855789315921596,0.4975595699599725,9.811034584390072,0.03988169651532886,0.011287882925168814,0.007468957911532259
40300,0.4888683364485039,0.3175030048049302,9.976787261429038,0.02080651173819108,0.054834272355812744,0.08892408380197148
40400,0.2995753644497182,0.5508282263875282,10.253998758613388,0.03862205261530376,0.09866267157538684,0.04398944692012722
40500,0.2719645598975955,0.28176550033178993,10.26503791808814,0.07697892407471335,0.08320281325983213,0.08860783440829328
40600,0.5805877767796198,0.4353445408043005,10.257861436919605,0.007073578674990966,0.011340678139968197,0.08746539777109763
40700,0.2640753574544221,0.3209183653176475,10.130269937442563,0.015795047676444463,0.09039553133899597,0.022532755599618995
40800,0.22141878457192063,0.1372157596549746,9.942427746421519,0.03355149401937685,0.05449606763782623,0.06582562166279074
40900,0.23304964181740992,0.11007752545757662,10.007325327342278,0.03697002931021655,0.07330026460254173,0.08757111299195625
41000,0.36709006675354783,0.23851011408247955,10.19538002279248,0.003800517136113524,0.002981555909843803,0.09745426282973496
41100,0.11139651744843806,0.36455176096780995,10.18739384839375,0.006805820868742885,0.08417924933987148,0.013943807207823667
41200,0.48902265220617824,0.3740434534447433,9.84075481693278,0.033086433571243044,0.0326245112769993,0.053956045476147296
41300,0.4934775114764144,0.42816455210743254,10.15788934739824,0.002983386534402244,0.04944125023033968,0.006447785069930101
41400,0.11185548760582201,0.5455790700306657,9.935588476788967,0.010934603787816334,0.059011287762903576,0.08147752472558323
41500,0.4757744794277954,0.42584538713390996,10.290554692902408,0.0019148991382877734,0.09713476783646216,0.06247017564912291
41600,0.5176306349442508,0.24742184432567702,10.082261411679571,0.08748615054209086,0.08498157185800946,0.009216777966302214
41700,0.40386036785468493,0.5120568003548596,10.088948608472299,0.021114835578965364,0.05811481351495661,0.060038392997446705
41800,0.3355734459186658,0.5184624389122283,9.813459991460341,0.09006823301060611,0.055430406632645646,0.027259017059223636
41900,0.2996902782641552,0.19386683488574116,9.822790464942,0.011718162248121689,0.0503672481205476,0.011098978578383212
42000,0.13236158496081554,0.3259305909961473,9.839172065845974,0.05613352485937975,0.04646526386842255,0.04973150388917189
42100,0.3616013151423333,0.5833154158099207,10.15804629402879,0.056188426820331865,0.0008815531089484852,0.015921632175489985
42200,0.12577205991483356,0.38037426929016893,10.088387307597737,0.07820149939741,0.05490867287483142,0.09994894537561097
42300,0.37510758138242184,0.23045977887523852,10.292916818907667,0.06988069104567535,0.05665664645536213,0.06839328589261971
42400,0.12426379169585774,0.16848239348697666,9.986050871173827,0.08864133047796088,0.040157712934620095,0.056501149804226596
42500,0.3625024389742726,0.38169998522361326,10.218623344004996,0.0780979856026864,0.07805436084765412,0.04870595647291284
42600,0.422538501008223,0.5590313850389869,9.98612566030923,0.08347276171756006,0.011226365019300267,0.06501955960011743
42700,0.2816463129926857,0.5086127370536815,10.197636431208897,0.03448693264191588,0.08443650650468928,0.0407825902853825
42800,0.3502507978034174,0.27951276245637857,10.099500690030336,0.0746648937915174,0.04256386616817024,0.08457332022616254
42900,0.2814532441790485,0.5703649423496155,10.039432205771792,0.03813505961823741,0.026957333907250948,0.037423833388768514
43000,0.5366276965289447,0.3384433692677945,9.826267111120746,0.053868757333508016,0.0050720471474477,0.03444193344996086
43100,0.11973035185499556,0.19727441185297198,10.156637289146182,0.023521564868930846,0.038440379766593036,0.021450314214665936
43200,0.5946792129293331,0.4957519808287498,9.902057411315349,0.09635633250991962,0.06468683344523977,0.04091064137483294
43300,0.3084276969609995,0.24729892016065372,9.812857401875892,0.029108288996727984,0.017789732589457753,0.09357142618782657
43400,0.32963165369057823,0.5919557301596484,10.255769408672705,0.0989765813044965,0.0892635686230319,0.004334997628518478
43500,0.5043399258449366,0.2509813262607863,10.143567937093067,0.040705607071412186,0.08039643324384481,0.03555579816670912
43600,0.5578052759531856,0.5090601888846692,9.995409856786623,0.019708904483546688,0.09599076899385985,0.017607352422523436
43700,0.4927654455855015,0.33881478225717243,10.20697752054181,0.034827575580291405,0.07074375566595797,0.07309169609774967
43800,0.5179855842158831,0.5189425564054788,9.933977984457956,0.07278563331204488,0.060169500588643225,0.04292904600270865
43900,0.19790817098794913,0.2736354283081952,10.123107119037856,0.022241849516465042,0.0036745718785822336,0.059003761497667034
44000,0.3901829889614814,0.19040979861405002,9.947336436068253,0.08224458411937285,0.08039489080000826,0.017092710701299096
44100,0.11110122982721951,0.20201181331893356,9.926103636383447,0.09012965691469989,0.03942600939379564,0.046992871762915917
44200,0.48395908052312475,0.42515524004867133,9.844920865471762,0.046926947066943,0.018682119764604856,0.0525127974163669
44300,0.33239964271974376,0.5596713855439643,10.151656832843395,0.010071113515771203,0.09797208313415227,0.06818444927676123
44400,0.49606630661716833,0.310569274558668,10.093020941704474,0.07201739172958305,0.07562800365211203,0.08403746413906314
44500,0.18172380132733587,0.40439099872605133,10.09260793568822,0.08438824767101034,0.08080498529417333,0.03535323870518569
44600,0.50405360159166,0.3040911346954419,9.803734059349527,0.03989276098518633,0.03821697872469835,0.07823418594595077
44700,0.5406859259672012,0.4929501740349371,9.974641362427162,0.06681083038803569,0.03418663504214971,0.04881956801385681
44800,0.1304288480704132,0.28866199259778824,10.142873723800287,0.08803572483227505,0.07948276421403755,0.017303963040965164
44900,0.10714341263274749,0.1739878960799495,9.963386365888477,0.07224401602628466,0.09159220249772783,0.022080032080421377
45000,0.3801547740151968,0.21576266403092056,10.11506643492075,0.03332233180249812,0.09576156645751027,0.036845298656152346
45100,0.3981875061905261,0.41669787243211875,10.288878263487007,0.03713429149184463,0.0979033439173432,0.07345275989026277
45200,0.37915050763431557,0.4242730129474519,9.961543800190189,0.07156673171999121,0.05211505732664143,0.0804529671781608
45300,0.17927246924143012,0.3161348103688244,10.204398544298597,0.049218785999238984,0.0672903327919017,0.05809526863332956
45400,0.1517633833974019,0.5982750330624476,9.85531013494909,0.06710382824229826,0.05941794736505566,0.04173539760142782
45500,0.5292970064799494,0.1940551424359406,10.192530861585572,0.08488687050805833,0.08599974816341091,0.07339483052463486
45600,0.19113003358650058,0.4106738684040796,10.026649264359854,0.06190257675348731,0.0344700127600593,0.06311008924733924
45700,0.3723137801432982,0.40440133701918424,9.87360662584983,0.03357263548281993,0.07572506950976277,0.09181741137009755
45800,0.4256880081713613,0.12372515759707844,10.070096256849395,0.027731143229168233,0.08505233049782485,0.04063351808339192
45900,0.5154338188322501,0.23841811537325766,10.206985718246337,0.0001812708325541701,0.05515248338355014,0.07782418364074488
46000,0.3369920622370698,0.23044929003727446,10.238108456480505,0.016257077688711676,0.02538757964346544,0.04010512652273373
46100,0.5667357015998026,0.33242113000405993,10.195304751200545,0.09062021386928559,0.018167938206858948,0.0027851389518510853
46200,0.38480609231632945,0.24892329909146113,10.229565299357901,0.012070491814852868,0.08954547194112379,0.030991858850437582
46300,0.3974182799495284,0.5492883558661056,10.213322414532449,0.07942329368298853,0.01574484688863862,0.09751151513267103
46400,0.14151209466607764,0.3091054885819451,10.06701555445817,0.0016441974955329842,0.06171688047135644,0.08601807827568628
46500,0.12948454808855783,0.5610507478609604,9.898360081004189,0.0008840876931774489,0.02547856392511183,0.03389552071643039
46600,0.5745060238117402,0.26374883185814035,10.239911447797551,0.0869512660495894,0.08475793829032713,0.003284720075512282
46700,0.437740737143675,0.25175311683958557,10.126100578202543,0.050546462678329886,0.09601675489499079,0.08694510216670374
46800,0.34493256253281956,0.4305562846946094,9.847370298381396,0.05814669504178808,0.04237478936929793,0.017129174117059356
46900,0.39519887788387287,0.11450884098261879,9.984779488909888,0.024377747814669004,0.020926773657509636,0.05343751423566726
47000,0.4152946709178277,0.2919138565589895,10.242256945866917,0.08950870355892362,0.02733338513788344,0.023486654542034538
47100,0.3481730165200376,0.15565960462279962,10.225932406737494,0.0032790488103870865,0.058588114263061424,0.029073657847235257
47200,0.5945852167436623,0.4577292952215991,10.270593904736307,0.073147375208633,0.08027974849465243,0.06625464289009038
47300,0.5970071936380695,0.5012553903990143,9.839569938731412,0.0021252128752759837,0.07900874829299094,0.08148438450468426
47400,0.42985187645355705,0.12055745995499309,10.136335626653675,0.06629812643217457,0.056974069901833395,0.0995486213651549
47500,0.5355297461529014,0.13440269658896523,9.943325387396886,0.008232357946279023,0.05593363129427207,0.05328355386639397
47600,0.1923341888063693,0.5489719809845476,10.072767773477226,0.007435592255666002,0.09472855435406773,0.00013369319707938755
47700,0.5864509923236926,0.2119347771248926,10.022073718397673,0.020454231649292533,0.001744456136038819,0.09194015186731386
47800,0.3250117714463062,0.4967003630423158,10.150624224922499,0.021692576797190735,0.04781848513172709,0.09769602207681076
47900,0.2923796960107865,0.23109614044603446,10.231580669808961,0.0019101717178305333,0.08642342908219207,0.08278462189857813
48000,0.517935646299172,0.5453380189186293,10.028116403379803,0.07044285897353524,0.004748962317949213,0.08714545873519716
48100,0.5092655911543132,0.35048210442168626,10.08062200453014,0.07085461823678887,0.033524460061906104,0.02783510460027966
48200,0.32357928002059344,0.4504063858297498,10.061164005930422,0.013104307787250559,0.0763555158241309,0.07152695110146308
48300,0.15403202491928478,0.5714759911069133,10.26629619619655,0.08818939157064799,0.08878641377809887,0.0810542220243094
48400,0.44585263381927864,0.31870611135975224,10.059317948488795,0.05956146398478819,0.0703706132419202,0.027522717067426483
48500,0.1963547439787484,0.2928350515719207,9.801947742487819,0.002335243608801185,0.02803860966665398,0.0456285364148771
48600,0.5622283305334894,0.3334173220481974,9.929370450114943,0.09463746675401909,0.011178733692150012,0.04029401302980842
48700,0.2105182840348885,0.38903593772989264,10.056575068433723,0.05445352407102514,0.029057893651957323,0.03839964442858195
48800,0.262073517616503,0.36480401582857347,9.827455617069306,0.02988290542665032,0.044613806124670065,0.01401500950194875
48900,0.3181271307515793,0.20361439282408764,9.96147749515088,0.00838228994217517,0.00847716524430081,0.06445958094881457
49000,0.18555759449818268,0.3749126640544803,10.040405571925673,0.05016847332991268,0.011205679911847267,0.0680777351054591
49100,0.20220923551531336,0.4331075524281266,10.108008328272403,0.01874523813854543,0.06576511446310722,0.059817705941839105
49200,0.3108603803637544,0.1219766181542982,10.053159258832245,0.014836962086842277,0.08446909744095246,0.05461576679417937
49300,0.20445630959216424,0.4206119407070593,10.275456254834717,0.05822553558925865,0.09367810624899142,0.09589035725684292
49400,0.4199943517101121,0.4100109377633281,9.911051050953809,0.06392266788824871,0.09642828060401935,0.060143500423469304
49500,0.39190921562692027,0.5298080121150683,9.911816736832856,0.016636589832125438,0.08764017145558983,0.019517299989581984
49600,0.22545064921093397,0.14431893399499748,10.28660516102138,0.02128366051613937,0.06442618982744959,0.05024646056214263
49700,0.44265422042180513,0.4226359957496608,9.849503431828158,0.06298131142936868,0.030044460396695186,0.04663754622718385
49800,0.29179348307453035,0.5656437947790187,9.894996384948465,0.08970260039024108,0.062016579779261165,0.013934294992212016
49900,0.1310968958152837,0.4895743264535378,10.259402655566847,0.07336820879381821,0.088732901946778,0.01629382675902048
50000,0.21593686368592882,0.4338269787063913,10.240614782665384,0.052749669942365233,0.07145811810977463,0.003223313496849667
50100,0.31914533586508687,0.24858323620131914,10.177547533661304,0.0040676451118630275,0.030777444640692243,0.0768345783827416
50200,0.4953449907598959,0.4578720431583656,10.236279253216239,0.05749202926572594,0.09090682439576807,0.004760674779621033
50300,0.13713933027764844,0.5985521022475394,10.125019273321417,0.07396924467067632,0.06809134815019034,0.07763635468452815
50400,0.5429188177919415,0.5316461930236359,10.199832761256774,0.04054881372314111,0.05528682762836365,0.02608556724822172
50500,0.36341564256061043,0.2727820395470124,9.923957820319972,0.06334555529946434,0.04038485566494698,0.051833352414297554
50600,0.19424934799775215,0.36791273615313236,10.105343417694254,0.061754480508307466,0.02672906245579615,0.003300596072419471
50700,0.11512779151849625,0.10060128657812803,9.884467798111576,0.055877128374091124,0.045805691650972896,0.07849006046183682
50800,0.36457284355641406,0.2182371575079867,10.184246677283914,0.01717922379819379,0.0059347023482396845,0.03365692933124981
50900,0.21078774595000058,0.2577027207721796,9.925700212683196,0.06390785972192446,0.07638218608086955,0.09598573971728508
51000,0.3582248355677885,0.35348113253076663,10.055555492627642,0.08522477895590655,0.06968228223957622,0.027112149551225918
51100,0.18966253474754827,0.48000656099558336,9.836710930554531,0.032820012717549044,0.025400866121374512,0.005652329000702017
51200,0.2646976267697686,0.4198850181680104,10.056875521056254,0.0077428141440998525,0.028379150723665248,0.09085397631394652
51300,0.5137107188740309,0.2709466594333467,10.098455481506106,0.0730692143184463,0.0825805716913758,0.08541731752626432
51400,0.4236187192997959,0.35576900958967594,10.184109092730747,0.01891569583441982,0.0006887485945112348,0.01205455608809497
51500,0.50483379955502,0.5895156678142652,10.159272147359802,0.05711894799201115,0.019431858308388884,0.016663138200757745
51600,0.14226261235503754,0.28978328697033295,10.022417987620543,0.03163168139132109,0.08538959492501111,0.0810185658175139
51700,0.3985819648331127,0.1375524798926985,10.17097343738672,0.091227818253006,0.060865543727109894,0.03551931727026739
51800,0.3148630389902044,0.1381322809276491,9.872910994342442,0.03265792021333839,0.0988554441589375,0.05486738192413041
51900,0.1583440314108535,0.5194821831809573,10.059772402320537,0.024158248538000384,0.0756579226103505,0.058197391595332895
52000,0.31383217958894094,0.3819364986617163,10.047293421321948,0.009217199488717765,0.006392843740202803,0.01616955415432647
52100,0.19340242830136126,0.40776916913692507,10.056770772080176,0.06604502173510571,0.0884480980406341,0.09458826058501357
52200,0.382525717272714,0.42227959740269794,10.2612364820597,0.06034580832996518,0.0646757573568541,0.03769877109059016
52300,0.20232569756240745,0.18380573927305507,9.971070616508294,0.09090409471143937,0.07799611063140062,0.015378884569690054
52400,0.22839092801134578,0.1446574611741531,10.11894835383808,0.08920617752230464,0.007302173071012797,0.052255382710925224
52500,0.21908264514107187,0.1435525105191968,10.187935708373912,0.06196996222476242,0.013661248945748251,0.08566518494195771
52600,0.4001154663858859,0.39714136479021944,9.878034364940467,0.0936730467152942,0.01852920188454038,0.07664769421104291
52700,0.5325593349312131,0.5985727625646288,9.843494675496583,0.08270713523149478,0.061878573475534986,0.033967525545287716
52800,0.27042311132652286,0.5748867440436378,9.87983714991993,0.03297957290184594,0.09657982579040363,0.09336524517659518
52900,0.4401920982745463,0.1064661105820762,9.84732131772967,0.05979034241929973,0.042995415136017484,0.011286680213295697
53000,0.14346304777489619,0.3471359727364446,10.228270864738885,0.049451255632939776,0.03249756580010408,0.02950054943918631
53100,0.4819390657863257,0.13810256683798947,10.296260771607786,0.09683102391830255,0.09277106107844113,0.027387338766866377
53200,0.14035284955281954,0.5648387960273984,9.920723128006518,0.09177450524954525,0.013492025464110026,0.04844422371655987
53300,0.5667090171139252,0.4437181255038174,10.264122793601892,0.005873669905326818,0.09126341149364191,0.08318765506285707
53400,0.2365409936243105,0.3124865883998761,9.89018462730429,0.09280941187558511,0.07426090649878012,0.06809694543184185
53500,0.5330230551906576,0.11556870011878692,10.175087285546907,0.06746256750216881,0.020103621279618414,0.09324115025035208
53600,0.3245501043977935,0.2531560538033514,10.028012581878698,0.04645859033543276,0.07404534163875152,0.02778391866232891
53700,0.30155029859748084,0.49425726068641884,10.286281267674152,0.024288450789263727,0.08063103950055645,0.0845800699102015
53800,0.35125421681296276,0.542446886072665,9.816706274093834,0.02582751541698878,0.028189475402788447,0.013310973438665663
53900,0.3833187209271125,0.4819954962715287,9.861999569485395,0.030049815863870646,0.03678986060129478,0.018997361727018006
54000,0.38727045923605674,0.5570550013748371,10.254622191007941,0.04393489834245043,0.008861873671421073,0.02376866187523834
54100,0.3273437214847046,0.34720610338982993,10.100023008792377,0.07141792367904477,0.060327968734844334,0.0023447268400436207
54200,0.521807284340823,0.42310304937291876,10.088696979021169,0.0514141044522197,0.06750292691573648,0.04250607423690155
54300,0.27374436669052626,0.1813421022085601,10.251600507377773,0.0017682454648606074,0.06306909029149915,0.09231675820649866
54400,0.11403778035268788,0.5389764456765943,10.185597883111436,0.04372988013999272,0.008439101761810687,0.04506197074983492
54500,0.5673755062880629,0.5342137567951831,9.950594965334039,0.0714805797502612,0.002836797534633839,0.0011137305245758067
54600,0.1047389696255551,0.4989532479454304,9.808452378291047,0.04599375270299377,0.02598154108960643,0.03443259329101064
54700,0.5122012831995991,0.4592332081944428,10.180056285670728,0.023938385328366642,0.04232803022017731,0.03983800511985796
54800,0.4207066126157297,0.5915357065997987,10.017697912062717,0.07201243494179725,0.08156422075294918,0.029620533631496682
54900,0.34595265555199195,0.1570898269465655,10.172291147144678,0.023616289815695468,0.02051621823171003,0.08363007652097264
55000,0.5246522243478461,0.22495700829805818,9.80792208632462,0.0943886812334865,0.07754584871137682,0.05336316826339317
55100,0.3834571194536732,0.44759009843570186,10.190827171744479,0.08616171706786271,0.09376762650642095,0.03673895767748303
55200,0.5535212583797174,0.4929435874751258,9.928122748765295,0.09414847237476864,0.009968216647439654,0.0637515105090754
55300,0.20136089819370626,0.3754143155752905,10.05008053405741,0.07489788467870473,0.047493126366371125,0.07327934087192403
55400,0.11984817547589707,0.48740900352916205,10.239383003221159,0.06298329379299787,0.08353217206225627,0.0791343380738959
55500,0.42772628479266084,0.4680034678220285,10.17231636967659,0.02737862541523424,0.03676441343860898,0.043279920246752715
55600,0.2538145564126779,0.2959944589155653,9.870610796533066,0.01515662239069504,0.026877145734757357,0.008682312077130494
55700,0.5213658482931004,0.59975580323061,9.853322243214535,0.003227234899650655,0.02456980989336889,0.0916361185488203
55800,0.23845583101734277,0.5626172275425098,9.838160357437198,0.039151006327991615,0.017954743950482244,0.09086643658905869
55900,0.2068299927532136,0.27656130000690005,10.1459956827846,0.08418449598874395,0.04902752055439119,0.05671923794997848
56000,0.3448158643131546,0.3797238205622292,9.926751362294132,0.056214452312008084,0.045827323338847974,0.05951582213457457
56100,0.2739277934713302,0.39976864973390924,10.143770211568567,0.028545350026473272,0.014126570811483219,0.06374161839809385
56200,0.5675581623454157,0.5994364816333031,10.114895897224688,0.07974015887235691,0.09776788634650875,0.08645773098692429
56300,0.2161286482738631,0.4483050151626695,9.99628282751888,0.03234963897541494,0.0957332326647952,0.09629320844229924
56400,0.3609080907636616,0.3029908026917494,9.937248688495183,0.006345782392394462,0.053592800708978316,0.011977376371270077
56500,0.23629722582067517,0.23487401735177918,10.157511665843405,0.05874791671196349,0.06537476671502726,0.002257069034408754
56600,0.2640668304792607,0.4003798242566089,10.294317772130526,0.03489810530393724,0.030621102213644003,0.003915839066688387
56700,0.15179645377765752,0.37261864228672925,9.922016627921945,0.041753125969384346,0.0832648083140945,0.07376090271659311
56800,0.21715858424397264,0.3476664700602745,9.820881163883671,0.020456641706334745,0.00900884514968583,0.012552783835939385
56900,0.3186128605466406,0.4793522353408787,10.038225986183578,0.040668796609856554,0.0815293754852514,0.04943757880020005
57000,0.5153422470166544,0.5715451868772802,10.140963883732173,0.07449410827440855,0.04326595187338596,0.04834260507485588
57100,0.26970313968274795,0.14248459325275467,9.899842337666422,0.0673706527130873,0.054259285601589324,0.00948604330351609
57200,0.38448724320118866,0.536309022092271,10.081280783561068,0.08422633653351103,0.0058690773768972915,0.04619383176828218
57300,0.28468204223031435,0.13400882916526277,10.232382690169016,0.08409773462558624,0.029002773850119436,0.0942902339155759
57400,0.40482019015742,0.2561851191709512,10.011043320242031,0.0287756042600698,0.08162657823793136,0.03701083507260766
57500,0.49841086306118665,0.4305526873178499,10.13529269251666,0.03948432500460253,0.03763646840440965,0.04089295345358608
57600,0.5849771411859219,0.5158763350046316,10.087165101871543,0.09283519595888462,0.052804483341399366,0.07833567773461718
57700,0.11410176699627725,0.5368906748613536,10.172833181451374,0.019620194364543344,0.07996142532412488,0.023380131057152156
57800,0.3995737258750093,0.4055735261225515,9.897457053381737,0.05564607164083583,0.09140850132262629,0.09959361637470454
57900,0.3590438288093244,0.39157600203444054,10.114161291448397,0.07997313652165212,0.05803173196670985,0.08440301623373458
58000,0.17241092247849069,0.30853601182508905,9.842212731397435,0.07883864077116767,0.058072776472831024,0.020065837983160053
58100,0.337953866434327,0.4565217184153315,10.08287336476259,0.031584662991709624,0.036533620112095946,0.03584904426291391
58200,0.14575877206464902,0.416868345581651,10.206905589443657,0.07400447717295335,0.09385860037743712,0.06697412671440238
58300,0.33371678588221076,0.14231073086344356,10.066896623182501,0.033839819037774076,0.08963881167074488,0.03626641631767143
58400,0.28377456468592077,0.599225639920247,10.25919879282567,0.08429777221501607,0.02242981547414712,0.0548779376337438
58500,0.3652031799826879,0.5917222549100596,10.025843634437365,0.06781848245979659,0.025964577025739344,0.028161999672870086
58600,0.27225363166378036,0.5665026387886772,9.935173203108329,0.02313356311369962,0.03454538959623754,0.06433775698904763
58700,0.27442286272966687,0.3850465872328105,9.853791573404513,0.08000172899842375,0.035207069808190154,0.020964995209742432
58800,0.3758955560893106,0.4579950526048895,9.900909486545602,0.08453896988585755,0.00934700240307893,0.048254252700535065
58900,0.2871595585306932,0.5520179259621157,10.06059105581633,0.02424877191345134,0.004487108550844355,0.002424306103845242
59000,0.48501090418532333,0.49093625472827573,9.8048782581328,0.06508212881428539,0.03751081349201171,0.04980838599967579
59100,0.5881514215856675,0.2776619999034379,10.035069359508013,0.032718747956876175,0.09850295140806276,0.06089886714390345
59200,0.333578219557112,0.5531452661993839,9.964543534869614,0.08341932431664816,0.07382823615164087,0.019706514014211297
59300,0.446209047902962,0.12962093358797042,10.144383219045352,0.003791991505274617,0.08838697140339519,0.09183407723845759
59400,0.2533483450868298,0.3781905337097915,9.99538894733061,0.05942137932646309,0.0005441632147025199,0.002409035684195715
59500,0.15080887947159574,0.39684989073729193,10.05812037728409,0.06411762058062594,0.09543149008947845,0.01191844709930432
59600,0.2609114869527558,0.3928215444724381,9.855115986387613,0.060680090703912726,0.047011433433881734,0.09787907214983665
59700,0.5382465679500114,0.11088507934309724,10.204531513577344,0.007863002855095736,0.03659912925931604,0.0055218202089182605
59800,0.1536075801782378,0.43776565966298386,10.121813242068296,0.0009824828359514483,0.052610216237720026,0.04776201144569149
59900,0.44945809106420354,0.592527963482674,9.915513247784013,0.091570175483723,0.07649395684998189,0.05490462131312587
