t,ax,ay,az,gx,gy,gz
0,0.27558625334612086,0.35005828578144926,1.1856044620279689,0.02940411611882765,0.069956021430555,0.04483875915436996
100,0.22393408310196736,0.4756820665335635,0.9423158977782662,0.0996210367915726,0.05873315309413524,0.06855114727197648
200,0.2252494128567267,0.41375381137340794,0.8357131100612403,0.003914612319410027,0.027491085853049515,0.014216919207912982
300,0.4102475612731684,0.4503461275220991,0.9831151702829343,0.05664153058457347,0.056636856863444995,0.05815239482546625
400,0.4319731750686707,0.12064489728733926,1.184337563079918,0.04986816608828083,0.06251576892210974,0.03857502878513043
500,0.405282214258443,0.4764249938501044,0.9698113506810202,0.03498826420760134,0.02331420824087275,0.044426638341758674
600,0.21572955246573047,0.4221954517743066,0.9360550311705913,0.09040797792798011,0.00229270559064898,0.07575810352395877
700,0.10275489733001361,0.49013313687961757,0.8036247187758361,0.07224251681592374,0.0502805758822058,0.040921672350079596
800,0.3134245322222896,0.45159894654774535,0.9877335730114839,0.07806116787211964,0.09008920011400198,0.06859835337765034
900,0.11607704361933971,0.16016964355536453,1.0523493265424575,0.009291874851823645,0.07345784494084669,0.0751023640583901
1000,0.5070781375050064,0.3795553224515835,0.8213383543940959,0.08686986459444404,0.004336889440848113,0.09022768102529746
1100,0.5115203057706945,0.5850250507992997,1.2656569280556293,0.09211128641313024,0.06661429866762196,0.03545898459842408
1200,0.26055521074956434,0.5350035868586427,0.8630482934706796,0.012862314142276577,0.09666184500904842,0.0149358666538019
1300,0.3667042516041078,0.4158084064863442,0.8593324094248421,0.03265947437724211,0.021532877645315963,0.037792819228948
1400,0.10170196430297837,0.30260162178955463,1.0433887535452242,0.0843582500688838,0.09224885843895347,0.04988350580189859
1500,0.2138402775061958,0.5536090488991346,0.9534172221889418,0.09569148963719963,0.0952414081679766,0.002366337903650373
1600,0.24597267472738524,0.43077041509231206,1.2186146537823688,0.00784013657588546,0.0744517587128124,0.09497245855350957
1700,0.5255123397447582,0.1772303772174396,1.151621472040953,0.06509151375627809,0.0053276145413662,0.01663363112931503
1800,0.31548386438248155,0.4771762440841054,1.0616713347244897,0.040671542597107715,0.06778728295140185,0.002858471741658042
1900,0.2666881368934222,0.18870296105449788,1.196050502106417,0.09749259532471743,0.03148397329495876,0.06756074352869446
2000,0.20611159202140264,0.4448098454516016,1.1219677679714986,0.0929944704280935,0.0973317650330408,0.07012635009398231
2100,0.4800588810337927,0.14038423442026757,1.0151516581661073,0.08358866405430015,0.05241327492955991,0.08736662896724057
2200,0.12864580030204184,0.22400375708188983,1.1110811924488966,0.02133588984362186,0.02141361540642125,0.09378354009643187
2300,0.43989782579766235,0.22365096943474003,1.0930032096415756,0.07880326707888002,0.06696847162149837,0.04180270714200926
2400,0.15320497762097132,0.48433868410977354,1.2653496423326112,0.09889907989019393,0.03831270883654743,0.06287682280083039
2500,0.46918140039878387,0.3185338793855653,1.202771980526248,0.06224606290439179,0.0275681534150102,0.06355223155153636
2600,0.22898499225881877,0.29208517120732147,0.9426414219321526,0.0816113955764929,0.017354280424736756,0.05661872836678893
2700,0.44830037134975964,0.42510891990538957,1.286188466160607,0.06675309375861348,0.09104253779774185,0.08307096365572647
2800,0.46329112002208606,0.5563732681358704,0.802701227774779,0.07973580720037782,0.00487980462676636,0.06090296197727116
2900,0.37545886950131735,0.38520296241641616,0.9586367517750821,0.051087772798753164,0.06605542270977215,0.07918478987384762
3000,0.17634283290660183,0.24045610116337138,1.2214204902129264,0.0862314898102089,0.01537213374767783,0.00416458673339134
3100,0.2662047007897762,0.318745506329427,1.1044855329661118,0.07204721240376845,0.01194978031964411,0.03213817779080918
3200,0.11967513223934231,0.19930589032359966,0.999631509364568,0.01482557625907215,0.07978581947742452,0.03808291726503176
3300,0.3705105993937752,0.4259595149324009,1.1217323161026949,0.09822287623430911,0.09907186323153054,0.09848511481267658
3400,0.3270524032060048,0.28710344084175976,1.1535977659313554,0.02817287734369972,0.06679902515651312,0.007278197094031891
3500,0.18225179156490304,0.3814722022237954,1.1586279577093634,0.08245058224458279,0.012788753479826843,0.04974674568399581
3600,0.4768978328693372,0.46740174140376334,1.1102147872194226,0.052292752686296906,0.0008258555830434333,0.06861990596238347
3700,0.33362453315723517,0.18199961510506849,0.9962161586613101,0.002088091693672489,0.06627908646032607,0.09648232295545617
3800,0.3482720929528642,0.40896460169893634,0.9012890516082196,0.002436221818430351,0.0530574492009432,0.055285373593044224
3900,0.34488874796997493,0.47681448826175643,0.838438911424114,0.06513621728282344,0.0891044695157709,0.0500967200405276
4000,0.46813635744097426,0.19904766945107935,1.2020333895618407,0.006947454835326528,0.06255013577025313,0.06641472953982981
4100,0.15496830610038223,0.26694125368326516,1.196530156649052,0.009347244472096972,0.008346501111537076,0.0005690441671658885
4200,0.5576697485322542,0.19262652480308237,1.0242462090950895,0.05678060018922391,0.030166433915549296,0.049785221559967285
4300,0.1676458698339224,0.3357537355593111,1.062138403787329,0.060335434019686475,0.007549041516015598,0.0768044028612551
4400,0.21428908863124232,0.17032503063929924,1.1595042012411292,0.010784571203473559,0.09761896686936873,0.06349401285802209
4500,0.5745313527653125,0.34037809701239885,1.1269410506914457,0.05767950834391409,0.04120106917715029,0.047446673933554506
4600,0.5734488079625252,0.11909288537135479,1.2696363186437747,0.010824759801938533,0.09927817696023956,0.09028189304250396
4700,0.49270859661749056,0.25380809514914693,1.1337596360619602,0.059410574888045034,0.056876243848571956,0.08877286846234582
4800,0.3610037882690865,0.17488675574440202,1.2577374654699771,0.08381660261717638,0.03593019532185309,0.0902310709794315
4900,0.5744125009224733,0.10043306010407702,1.1628125675464676,0.06816009963148038,0.09934537216913332,0.03723182579996686
5000,3.357837538528137,2.4858080031677505,2.8352190476490113,0.03554142691520695,0.0710544489653513,0.05351471558665108
5100,0.36635698298166064,0.22138020725565707,0.9444463127900159,0.04549190113040069,0.02430711289050872,0.09189267119461948
5200,0.5750524710380165,0.5965493296804486,0.8993017618548333,0.08591641277551543,0.027845502031341465,0.016338119789613227
5300,0.5440353710440047,0.3781870899027422,0.9775404824790521,0.08504013558114315,0.027424625258008206,0.0684927801427957
5400,0.5380226646414333,0.32393414472640325,1.2161566300114,0.07778621500669027,0.03390601162439645,0.039617229154682035
5500,0.1898891912317557,0.4541735975357921,0.8853714848071672,0.07260588402130763,0.058807144364261425,0.04254094735151557
5600,0.21901714509817397,0.3644261725341673,1.1163569728079845,0.018071448373668975,0.0027557630185847007,0.09147513210290847
5700,0.5987677680834526,0.36090388122183836,1.2246676305950603,0.017133545745238444,0.023341360133976908,0.0953903791461021
5800,0.59791623582829,0.3724985574712414,0.8974722088461315,0.0708953700132086,0.015130369328951766,0.05397929476048993
5900,0.4348718485470202,0.3103384966502679,1.0238424871956648,0.02396935268589997,0.07323054671183907,0.019588453070327208
6000,0.3572901814342716,0.5992722117295393,0.9133470267453532,0.06482924686416182,0.09345401980061416,0.04001939744945108
6100,0.20202631173209315,0.5903694143893841,0.8007268234806766,0.04823204351922136,0.020092783316523977,0.032180848819045975
6200,0.5436681854235055,0.2824820650669069,0.9471459455862324,0.008698936124349011,0.051619161124461424,0.07412074272896765
6300,0.3122841736990537,0.5118712277487861,1.0580827857128547,0.0014507897167583606,0.02962456911346195,0.09419546162291709
6400,0.4483541568751861,0.23840595080974777,1.2505728867196333,0.06353678327727606,0.014726683030139255,0.007390366545191807
6500,0.5328729524429573,0.2892215977210617,0.9801886435982272,0.03359682680673992,0.07778916707034172,0.061631536907756385
6600,0.3846704494879123,0.3556060012856862,0.88593706664379,0.08377639205591718,0.08535578669450178,0.021888093236526886
6700,0.27599790346726294,0.2112297521465283,0.9086296672918845,0.09744411754971403,0.0947423373824394,0.013944692254009817
6800,0.31697700720540933,0.5537855467869834,1.0027450368662336,0.04606207768304128,0.029181148619940447,0.05719073939885452
6900,0.5271138433324416,0.3471286190709888,0.9674519353140054,0.0768874719407326,0.05245855428890137,0.05349096259542133
7000,0.421212045860889,0.18232438081097344,1.0710920408119797,0.09947841321271791,0.020734784074290392,0.03279583968729712
7100,0.19374596218938392,0.31744819584475836,0.8531524290136185,0.09313357284509602,0.06198058947334217,0.0235130254529044
7200,0.4554799581643867,0.11288848883081318,0.9868439190355092,0.04031507942847279,0.0929832380481344,0.01288951776386118
7300,0.33620966880374736,0.5808270864031337,1.063862234454517,0.0007075817298504595,0.08532090709531179,0.00781965227035163
7400,0.46194857652126087,0.24238480137746246,1.2474061171060806,0.07999608743123837,0.08028859264992591,0.07812629463975193
7500,0.22946142721125792,0.5741831836796196,1.1536068359968004,0.07475993758054485,0.055800021366032085,0.04222445228212323
7600,0.5693459397675709,0.35111169719143087,1.2538306808164148,0.06415446299333531,0.03801687588995431,0.06449145606443633
7700,0.14545644355173507,0.5558951155931998,0.8842871668831651,0.0020400757717763287,0.06796889520816737,0.0790524124758985
7800,0.4798933565769735,0.5608369629670374,0.9255985214246453,0.02487470421116561,0.013721228120637608,0.0972723185426374
7900,0.14311421072657463,0.1486896706163525,1.0111071542938028,0.014151443381732732,0.016776679165872343,0.029783623466299616
8000,0.39395714364040546,0.3331046651834384,0.9543628278331605,0.05564029881450118,0.09573673039169533,0.0007257309632558329
8100,0.1016855257830461,0.570889709925594,0.8944902039519077,0.025823659780392784,0.009252371369063839,0.008318840471477329
8200,0.3240031786298936,0.308974912601792,0.8271050410405809,0.045025973840773115,0.09332933854449549,0.019210814245039454
8300,0.21563082170348322,0.4627527372678403,0.9869055479289243,0.02819616312943576,0.04676397427997513,0.01571548629156666
8400,0.15217141515926988,0.4929212341113014,1.2306116564849685,0.06143477640529307,0.06338213636550293,0.04461275537776208
8500,0.40412582028784994,0.3974830784351161,0.8814061351252883,0.07067426964175341,0.0992642369656062,0.051327427795977425
8600,0.5833935165522794,0.1323023707933075,0.804939342690974,0.056883450424641914,0.03939412537240236,0.022090255319372157
8700,0.19442813849714605,0.14952416431764523,1.0753162790932382,0.04754618849038315,0.03345210767162347,0.03683920193961977
8800,0.45747864044577546,0.25312254636978604,1.1212013000413075,0.05942287283778715,0.016573091485355487,0.05963601600978652
8900,0.5773539625544686,0.2574513421186517,1.254099099739902,0.09035009535264527,0.0680586597115911,0.09316282368716428
9000,0.31824461619995537,0.12152104151547091,1.223667529189228,0.06036183659634923,0.02235588216912946,0.01085678213802186
9100,0.19242199300236443,0.5493636474423785,0.888548861379314,0.07535669512861531,0.06573484887295382,0.09606847782722809
9200,0.4817241148224185,0.4517120490504942,1.156921765456067,0.03981637192047456,0.0792710337377752,0.07836366169613575
9300,0.41526467046127935,0.333534490026856,1.0693588405363745,0.005931048318969912,0.06064206992133167,0.007087916114349047
9400,0.1730651470102648,0.28508713102500327,1.1832096473460598,0.09360107809775264,0.09856946713952236,0.06585305518758576
9500,0.2711187963899724,0.3732466572692925,1.002603660483758,0.08734427497717628,0.0223404865799675,0.022752990729125712
9600,0.15365906322717324,0.2689622152495994,1.0079246933937425,0.057569539058715306,0.0711159470054666,0.010379834916676212
9700,0.5797228833646977,0.20958794518450716,1.263434390633157,0.0480685662372971,0.020159883649423928,0.0964096832818685
9800,0.2715071169603216,0.2910096443512219,0.904788141751783,0.06493004806293505,0.05215750951395013,0.024449172396925147
9900,0.10011654071627626,0.16737900504462586,0.9210602376215156,0.015080294132624761,0.00658550633852647,0.04141472872107921
10000,0.5343967179966009,0.21842796800769096,0.8497613665448107,0.027842231440150245,0.034753125782354864,0.025611212624508575
10100,0.46422272911795903,0.12834797172923737,1.0035626547848604,0.03340336388042882,0.09702672027860648,0.09147435819610551
10200,0.5275685175827364,0.4069983084067932,0.9606610966052828,0.05142353445290171,0.04626630060100159,0.07449448633122267
10300,0.22126443197661796,0.20916747543667472,1.1560289013255263,0.048448394449718615,0.07269491236887264,0.07977987941917591
10400,0.4475735680139996,0.41478275259841946,0.9216645923995659,0.07912830570918383,0.07037439620304593,0.0868256931487944
10500,0.17552769210578004,0.2890962251109226,1.2870875980007168,0.011160900373303384,0.08130418590860074,0.023676249628512128
10600,0.2202346190797214,0.3430714510769378,1.2008561311807222,0.03205153777086219,0.028813795993611193,0.048751387688856944
10700,0.263385493429518,0.5193474937064954,1.003929896596702,0.08114481677989271,0.09937087000033323,0.025640582572825223
10800,0.29696096747712486,0.3083233631212381,1.2399744254102216,0.03714518536972624,0.08213506154079736,0.04599624409674977
10900,0.3895891123355747,0.3239847193210714,1.1571373817983217,0.015594810039685304,0.06518137321834934,0.08453879810243926
11000,0.47576181872052115,0.3599581988501168,1.0593203796638,0.020406631964549827,0.07006316732391053,0.07431578827909562
11100,0.22296671278927363,0.3656816605798754,1.1519912455881824,0.07901965033778569,0.04699514693264446,0.07771557397649193
11200,0.3770453260536363,0.3615358266728239,0.817661080367685,0.006792278408716524,0.010327669694390407,0.027555929174968342
11300,0.3534436271432816,0.48674927229104836,0.9484640913413263,0.05061282321748831,0.04236549870442308,0.08951829006361572
11400,0.25504397841588433,0.3709260454994927,0.894621457256247,0.05253694719763213,0.06170530315724357,0.0037901474641581223
11500,0.27228414580216254,0.4586915432231128,1.0517166505493583,0.020676627611867806,0.04616040939259261,0.008367301880812129
11600,0.48700218841464693,0.33359956653281675,0.947370353303882,0.04932979907684552,0.07604557176499721,0.0848330785635035
11700,0.36966754966376114,0.42066313947940004,1.2755026222354062,0.07368248692783384,0.06064481394429044,0.03390301174187006
11800,0.10148503392149558,0.5419409462584994,1.104681302484559,0.023128061828679516,0.052841977516423694,0.05910316645455987
11900,0.256296145509456,0.5862561447139351,1.202070303267344,0.041461171394585196,0.00207310877032888,0.04170143199065712
12000,0.5701103143089079,0.45860814277264805,1.190852260990874,0.001674672242409836,0.04074390051875505,0.09566225024646871
12100,0.4898000673616122,0.5406571590281848,1.0096072179843782,0.09371287929926911,0.09008474667476477,0.04200791060997838
12200,0.13538559908209366,0.27050840021292766,0.9992944190127675,0.08818093832986773,0.025971963956762434,0.030020147736663907
12300,0.5364406782922777,0.19813718391075588,1.2506604178412672,0.0615551237515838,0.004503229146970045,0.08252081527127313
12400,0.5028827268560079,0.5108363813319723,0.8858801391387856,0.01043865406889253,0.06339059050004885,0.0776326650025812
12500,0.15043361292708582,0.37711118029977475,1.052548509530786,0.009901099703114202,0.006736472550549633,0.08051419748364595
12600,0.5087867645308009,0.10902207429295571,0.9480542489782837,0.03891661126582457,0.08446347425637246,0.09047727154414464
12700,0.25968069999375987,0.17305856351779178,1.2104229796098167,0.04650925846872383,0.0911675990746722,0.07525451945546147
12800,0.25195102888985466,0.21417237694835042,0.9862576504039117,0.026121301155949784,0.06378600836196359,0.05568704342502086
12900,0.33254372991216097,0.3709381095525395,1.109075790455993,0.06212525877187756,0.06556593441747242,0.010160707597671292
13000,0.33373246279181645,0.5871076439353944,1.2855408941867332,0.034238314515463907,0.024167462632084125,0.07286306867272269
13100,0.31433759559898755,0.48141127021569274,0.8565807551084157,0.04874678893093716,0.09091014024560502,0.06623075245863475
13200,0.334844561217596,0.4392092259129633,1.2192988390690627,0.09601477518412015,0.008467600255060537,0.09666624170814103
13300,0.180627871478892,0.15911477987701936,0.8490504541189823,0.06498208200248888,0.06969744605178234,0.054953140650202584
13400,0.22706792592518285,0.30970766710713116,1.0863973996476086,0.07990470579334126,0.04910668405332278,0.07596745085714912
13500,0.18327480547717676,0.10216371643621433,0.8900601398745878,0.03807317136587454,0.0733304823004119,0.07879869539224535
13600,0.19788912637580644,0.5592571003151693,0.8371449412252479,0.02505088394740982,0.04736336483233697,0.08867970862891233
13700,0.2675133892704563,0.33571429428660526,1.052946715891653,0.038694859852164636,0.053076834882048465,0.07671354357872613
13800,0.4586287595494535,0.5597423975480077,0.9060463282619114,0.08377897768242623,0.052339250995893705,0.006165176411118223
13900,0.13415071476037463,0.4735668558642193,1.229191373456747,0.043306530128765654,0.07095603061100109,0.04627967616783059
14000,0.3309761564077519,0.10812646837122711,1.0625452333850651,0.09980691817868297,0.08176657280433447,0.005581583261902035
14100,0.35360562068921575,0.13902114585802786,1.1219346439280413,0.0728160573387313,0.03798682680862923,0.03350060582940311
14200,0.3813057832092507,0.5003841834155022,1.1232928255988126,0.09571373294209351,0.03580454879959355,0.028380328406371183
14300,0.5314591745118469,0.33587136895252356,1.1369670985126943,0.07491372934655258,0.04237999015042898,0.0586632227049153
14400,0.12128419849844438,0.5055103143654052,0.9631209095444566,0.06068828194290047,0.07416287837905848,0.0182883863201993
14500,0.39188319745397504,0.3688645566938481,0.9040159030027015,0.023738331345788368,0.02785484860225589,0.09237567066946929
14600,0.5395643349000632,0.31050614247216524,1.1700900516733699,0.05163531507939539,0.0741908644076145,0.07009699436189631
14700,0.23935674193768766,0.3427965553713813,1.1262673851373197,0.03183241525837388,0.09642701042237718,0.06366657665354053
14800,0.520002583372105,0.3890417509198484,1.2791787332697817,0.02972840463725548,0.04254103103968493,0.0769956922217983
14900,0.2330849161761481,0.30647416119103454,1.1118620836118114,0.0529345072581354,0.04325548208361897,0.09041177628816638
15000,3.4245789470766668,2.541723903350011,3.225196407768425,0.055048146411851843,0.039782735483356535,0.059057421322004866
15100,0.215177987101116,0.3227485980588708,1.1852373068048878,0.014067761979250238,0.08581077557606456,0.02010528016505149
15200,0.5736001518346018,0.44174061497316575,1.2954303985866824,0.02205169574164354,0.06026181639614027,0.00858332826294742
15300,0.5084881352008823,0.40104950959733887,0.9727042670313137,0.0927412822486279,0.07133855219107581,0.0672652254262513
15400,0.3887288190194125,0.563999344159094,0.8495991549675259,0.07586973978723893,0.04609159416742812,0.07800274000298586
15500,0.11138808522868168,0.20782881711111065,0.8665269897162462,0.05531314231683015,0.09564165416823162,0.06921589810963792
15600,0.2853734232811448,0.3851208202658447,0.9275155907960074,0.06638894155622224,0.03560141360560829,0.004944219848284293
15700,0.5250487975127706,0.46365960323235056,1.2692049331494604,0.026286263750453533,0.058203986381460196,0.06998289018575753
15800,0.4676524444791913,0.1725301770588291,1.2628146106458327,0.014587128320827925,0.06464351601857685,0.021535226866131674
15900,0.5062406057287709,0.4916355678476454,0.9631082903619399,0.05998385643483285,0.06479884512256874,0.07835857911691702
16000,0.5746145164766743,0.3749707702250388,1.1792134207978417,0.03517565825058078,0.014108759760666568,0.07407985544256994
16100,0.200255985127025,0.4316109287737796,1.2748297226612744,0.023035975144961765,0.05068214986142805,0.047832019793439755
16200,0.5333941847828756,0.35628219501753333,1.085318936788835,0.09003769128880332,0.09351070597823366,0.05987330111663609
16300,0.41578516402237975,0.29625658123611487,1.001087064234682,0.05659627184291338,0.036724385909580395,0.047203351137756804
16400,0.5537818179713242,0.4586638611015197,1.0659344061099638,0.0430790789740658,0.012248267620156917,0.05907464250373286
16500,0.3196606312632573,0.21933794833301376,0.8824721961978597,0.06229419135981758,0.027785095160571396,0.04783409589745905
16600,0.1391431934464886,0.5829686750984989,0.8435845475591461,0.06784745158221521,0.02229050161484021,0.028420663158096684
16700,0.2670293901471401,0.3384645536761728,1.1332844186194795,0.043331659303241066,0.028709569003073213,0.010259303627339789
16800,0.3599807050449657,0.5988868787282682,0.8251723618475717,0.014920704921519335,0.07172816236500582,0.04189204871553718
16900,0.34300768300925943,0.1737424812232438,1.1406530814382438,0.03617305274045112,0.09481246909386498,0.06915511882804856
17000,0.5025930542594967,0.12176296889869878,1.0362895014091589,0.0402052466414744,5.899261572175352e-05,0.09268529049198504
17100,0.4206211741824558,0.5752430163161805,0.8553103590528848,0.07561337383431922,0.07662373607273702,0.05818482313335891
17200,0.13510630219875333,0.1478804356703858,1.0355396516498405,0.029524374237854856,0.054112226206789585,0.0684115834038324
17300,0.36343599836540896,0.451880679966129,1.248414991992835,0.02793235755769029,0.07754043603694756,0.032194112565114875
17400,0.14086504495276306,0.35909409357091515,1.0939198812858797,0.05820855966302294,0.04454851970599919,0.018183315174760774
17500,0.34355388081371097,0.4664019717701666,1.046418413451541,0.04484358599032735,0.029998027251804327,0.05084868463578315
17600,0.14812586033470318,0.3109352028585287,1.1901620904229648,0.04305671810797606,0.06334132309029496,0.09813883851170051
17700,0.5013330643418777,0.4739644036864772,1.0197695896776549,0.060445547591276884,0.030829994271460538,0.06316869303749029
17800,0.4353586550928611,0.4493450444786251,1.1766992747128124,0.012376101814846708,0.013600248160177165,0.09253223030471036
17900,0.5660069414449941,0.5962189665933134,0.9583223358081318,0.07664978606943439,0.02331186638358317,0.04816004902904969
18000,0.19458089264801584,0.21817617327657177,1.1005820721090331,0.08224870578592976,0.010927283415051803,0.05949702422386362
18100,0.1988855745721597,0.4731842665596526,0.9782314475087607,0.010755487153587163,0.03134844500360258,0.026695731690789117
18200,0.591954633745502,0.1635003674644698,0.8610482947731766,0.0024320073818056565,0.04850483701190883,0.08497914693265753
18300,0.230085092329857,0.25934063995209256,0.8470919742372542,0.020306031326200347,0.008314639203312435,0.07897972143584803
18400,0.5187091625682925,0.4499688053614933,0.9151338280797962,0.09275349283208552,0.04530734872863307,0.0891404484818894
18500,0.3837289462544786,0.2443687002114898,1.0810282794385184,0.05596853276186099,0.0034310340730491886,0.04326292239223454
18600,0.24689344678213918,0.5580975074773549,1.0618932813913506,0.02498321372331923,0.05215306513646154,0.04727672746293609
18700,0.4234285469239827,0.5112678101074078,1.196394783538897,0.041798334189999564,0.0772485202942913,0.04978613048073095
18800,0.3660449317935909,0.2498655903989758,1.0955526469185661,0.09359607702141699,0.07524236062147577,0.0451336064415978
18900,0.11975982130265936,0.45839867645964305,1.2750947214645119,0.0768747189182068,0.0450512823049838,0.005940317504061721
19000,0.45606854888539416,0.1869481912121049,0.9854480528456218,0.08184461532530818,0.04291061254350958,0.006442301003573559
19100,0.33445376795159687,0.29066161930727263,1.1058518039193346,0.05946677712587718,0.07338721881856189,0.06799370994312273
19200,0.26506914132679726,0.3610581716404484,0.9851072186933394,0.04368838842324829,0.08715091485579345,0.039406685964867544
19300,0.1423986779101922,0.37617510788947484,1.1199663867621723,0.03184236674712232,0.05137570666572782,0.07677118970931233
19400,0.32701666343088587,0.452849830467388,0.802942376712044,0.010248182041165644,0.022562621412423645,0.05052458137774727
19500,0.3193626815089239,0.3327546502020816,1.0617674257944785,0.024863571027063238,0.059438566854982666,0.028554694710478334
19600,0.37306700554695305,0.5348414106025514,1.1705876772853065,0.070392786864469,0.07338699714514661,0.028113147233935543
19700,0.4722141277136933,0.34114398824849845,1.165584894549193,0.010005077004347662,0.0824871848909493,0.005816242414646811
19800,0.18766329326715428,0.40193938243517335,1.1021859291455698,0.050066249883919195,0.09315445941220327,0.001260756816286679
19900,0.45416094792838824,0.22053289318742972,0.8295009136577226,0.05796248849958872,0.02699921083399357,0.07842410399516639
20000,0.2460538389752501,0.34459834319754234,0.8915950057613663,0.006547062632169443,0.03972830592180594,0.05373469604075805
20100,0.4502005818577376,0.3438543210395608,1.219156676771934,0.04473501989138915,0.06730701141024456,0.0043714038029260775
20200,0.4995115080827628,0.14734308227485302,1.2018311208981998,0.054235167573394964,0.06979901509378314,0.04560482392812259
20300,0.4079453555501431,0.36530924885621263,0.996477742383481,0.08931607980539708,0.059578038417929274,0.08897622651093147
20400,0.10700181726025024,0.5474947773533418,1.069180231770546,0.01574820159513948,0.05159051260946375,0.06928607627172274
20500,0.41475334483410575,0.16939819818872145,0.9093602907444909,0.0854136490117717,0.07031901617574968,0.02040647757005644
20600,0.5975768546002768,0.16394935513909267,1.2486273301530384,0.0586956220142467,0.007118456392304651,0.06372980051993186
20700,0.1396761599677183,0.190269083805835,1.0149583832079332,0.054926826757454465,0.08395441422102004,0.07498854871345827
20800,0.22997681783797622,0.3951315851781261,1.21920021440842,0.01961215235454721,0.0956450993798229,0.07768458063816905
20900,0.19527941711365251,0.16899461420263331,1.2386513446972518,0.05520417937105872,0.07441346342045814,0.012707465730118462
21000,0.32394696331011896,0.16004252837007918,1.0729065189293174,0.01607676557212011,0.058209662642261184,0.00019791284966069744
21100,0.20798205497086739,0.5085044440400981,1.2721836353612428,0.013032756917619404,0.035425703754842865,0.09118186634394751
21200,0.1756741526923282,0.40949722813372513,1.1656123583621318,0.06819978560537725,0.06674026247321033,0.037200626640411086
21300,0.16012697946299712,0.5312820816906926,1.0056192216050475,0.039135545313665726,0.018147353536290378,0.08353648283130619
21400,0.11100699859066285,0.2789135620504566,1.2127324572843832,0.005479551755479217,0.08939115568731137,0.07503829738646306
21500,0.27090911953607133,0.5055846912393936,0.8698907957677692,0.025997168466598997,0.07267038904200615,0.024507070192310434
21600,0.42250034064412734,0.5804369889844254,0.8126309929883486,0.06975197568736942,0.06617886110046349,0.05000672221124124
21700,0.3035872671532305,0.49354379464303155,0.8198586016882099,0.08794005396285749,0.09187229906015067,0.06943928035853916
21800,0.563186417137681,0.4966864478209315,1.1739679737614184,0.016744771566839445,0.008882834523113503,0.03913510974078105
21900,0.584293765448566,0.5561619382449753,0.821618715184438,0.09762689279161986,0.0781438283274502,0.0016980044650388715
22000,0.41289008964402074,0.13999114702881724,1.0718910792028056,0.09133074470782787,0.06400862344988496,0.003961130513795497
22100,0.2790903614125184,0.3354464460041393,1.092093328383512,0.09008813065126522,0.05346573945151124,0.056703775452918506
22200,0.472429357274199,0.12014930238994728,0.9776008930519093,0.0006811423006779394,0.03855135870314063,0.08735301126365205
22300,0.5077205185244651,0.47613036776929707,1.0692864199884227,0.07790923512272457,0.005792279403824697,0.05488729992893931
22400,0.3479565036124448,0.10842983974946027,0.9297424057647715,0.09868925673744777,0.07972593883849344,0.06572533622749044
22500,0.5405290239427379,0.49880354504216906,0.976637892614732,0.06696165118242066,0.077036934898069,0.06068239049093626
22600,0.5601835970758161,0.39502139673933856,1.1027987195463935,0.06163929885807812,0.0626585467876864,0.07529609564549802
22700,0.28847392271324146,0.5584444849948036,1.2069860761242261,0.007648165050842837,0.0020700744463745925,0.09572206505047343
22800,0.12274651254313432,0.3063353950597669,0.958989268947767,0.05790745296891549,0.028223465947892868,0.01680152269155847
22900,0.22407505173904366,0.26016909195491833,0.8987410574297867,0.03705800880742998,0.05025769091463909,0.09178672052630474
23000,0.3403730507948005,0.1384747962344601,1.1483749886075527,0.09054797540050635,0.03506101705351705,0.014983677344098601
23100,0.22654115990735327,0.17846756812964035,0.8605843697668831,0.07961308892773793,0.024835704228830493,0.027075407511058493
23200,0.5523012886481671,0.4872154411728825,0.9798192329068838,0.03921560142952063,0.029755776138443102,0.04663730940390759
23300,0.5577363513181439,0.20722985361099003,0.9688772159469691,0.055446199828406754,0.042085129709689174,0.05783052109348043
23400,0.3770291306556156,0.33401613504040006,0.9600867183153439,0.044513850265589884,0.09978623420996034,0.0715094557239037
23500,0.4278929918164074,0.2939930120560935,1.23482918234558,0.0010215960246227063,0.010674835724699218,0.01343464633584547
23600,0.49234914887901515,0.14905440199591505,1.270393568202773,0.07130421225445314,0.07885488171490322,0.054773077843459465
23700,0.155301300442259,0.4344068525732011,1.1219676605526652,0.017479481899800586,0.07669490550080166,0.01408692302780541
23800,0.26983267442837533,0.2130610579643599,0.9636580642223327,0.01610243201466274,0.05591982756071349,0.040274769195584786
23900,0.24639145295721973,0.4324049970506677,0.8845374036930937,0.09750385762752779,0.033068674331666104,0.06299272905415317
24000,0.49750541033080176,0.2904835251498846,0.9631655848995553,0.06296801782921829,0.0979476599270794,0.08393028601239295
24100,0.5215021715890765,0.10281519812590792,1.0072774081514628,0.016125810806188214,0.016042296683210677,0.050065996054945876
24200,0.2023534445345164,0.17077316009964358,1.133391748731345,0.0001720323023915893,0.0623199573224703,0.02153725638699443
24300,0.10112827935833865,0.15839084897797986,1.0377187415058158,0.014722469756103486,0.09989860514794911,0.014166088860530834
24400,0.47718798818785935,0.5156545109657076,0.865611990657992,0.09347339630338232,0.011961608203663121,0.005429554782862911
24500,0.5187958684269132,0.176514849645215,1.117779294701378,0.04538908032753515,0.07603493010744578,0.0395707492596156
24600,0.18059884001225338,0.4667702951461208,1.0657725669829003,0.033329279164687066,0.028385485299414162,0.07143910580721531
24700,0.21835313525003366,0.5250191854894813,0.9307714541427256,0.060453593867004156,0.0939180868717705,0.08559056191896404
24800,0.17716668736797944,0.5308327496684225,1.1277806366388559,0.028972578311665054,0.07853624578179576,0.0814054993872947
24900,0.5325010250336085,0.2816559534054398,1.2749584368858868,0.05679522031740092,0.008447347944461904,0.06723612626878664
25000,3.3215845719062473,2.173144355470705,3.0920042769109406,0.08963057693267687,0.013082372644028561,0.04516495361638931
25100,0.3991652040277235,0.4730079825910676,0.9958788066281523,0.044772501317541624,0.03286511943607127,0.047065135817863105
25200,0.44400507634937303,0.23604523029565924,0.8377883250488518,0.03321596072711177,0.07921517088294712,0.0705316765036638
25300,0.16962039034982732,0.3430839248112054,0.8769241480276955,0.09857825289048716,0.09060525894448586,0.08336030769564519
25400,0.39882578454679196,0.10092904329503463,0.8140922094647196,0.092127128527761,0.027652974975020273,0.06369789964590498
25500,0.26572330483144113,0.5559150200506179,1.2091640773504004,0.09992804524112224,0.0996685023726875,0.0029371186829775468
25600,0.5843714920634977,0.42637214356398667,1.0688566526492485,0.024582155379119265,0.01600242895522678,0.054791365095620284
25700,0.31227176634082265,0.2313833554431549,0.9253131679969978,0.039704064510882535,0.09227144177958768,0.054248729223100034
25800,0.44965610068848894,0.3697697626902209,0.9816699286019526,0.02317754449961377,0.047462150667319264,0.02875832539131248
25900,0.21958425598227496,0.3710583139734448,1.0317704583522476,0.07649445143169753,0.0927287004223874,0.042980772619798824
26000,0.548512236420244,0.4187624850410686,1.1671695905888582,0.01603850361785717,0.04019284129557102,0.05544434111348704
26100,0.173261171432723,0.2610842808572663,0.9428913576307041,0.036706799104069356,0.0667301286830563,0.014202223340280552
26200,0.42181697379929894,0.3618744090448657,0.9968546669247036,0.0706403465202481,0.07524536949905276,0.09645644129906018
26300,0.34714564638474665,0.17529764434409603,1.130390372972303,0.03306297845527308,0.014806205141964603,0.011379212313328247
26400,0.3949727767708673,0.5791964676570791,0.9607795978564315,0.004594061910604419,0.029404849904268948,0.08257825173292607
26500,0.43117384462810204,0.31490011918747074,1.016751033579393,0.09536174318644434,0.0008129644784739321,0.040232619521000906
26600,0.43748745469196737,0.2442472181388329,1.128000291882064,0.07168677072646033,0.08581399484175527,0.05822727653865881
26700,0.5992704685631277,0.48763607742295145,1.2295904604067616,0.05999047655096723,0.006862465034611177,0.0643999042111967
26800,0.5500042005712213,0.17587404799268033,1.0664149987444083,0.05377955549553697,0.08846711533746526,0.020549535863014258
26900,0.38017015512871766,0.38570157533773897,1.2803728202902271,0.07599906390845305,0.031098987762440834,0.08754268845973814
27000,0.3641558307415178,0.33048760163151836,0.9231231112939245,0.0398604441377026,0.05535574045642897,0.06698283924110622
27100,0.18574553252119105,0.3915202351638114,0.8677564413293293,0.059339224053775536,0.050202165861241314,0.069689998636461
27200,0.2267579423023872,0.341502114778824,1.1975938723578294,0.014781420573377136,0.01795013226478359,0.0491311881340922
27300,0.10736954488828268,0.3342340720974476,0.9300400100283297,0.0930823559985342,0.0038689543898799087,0.048651080579408604
27400,0.2720718746833679,0.15091194108279596,1.1413795615267741,0.042947522692518614,0.07497306038375007,0.0810550998792909
27500,0.4844686668256222,0.5799674902148106,0.8958059022843744,0.0653115555081092,0.07295945744223269,0.08426344857827092
27600,0.5210582491152991,0.5455483464982438,0.9885712377029972,0.05439589100601652,0.014266865025468912,0.0644560418065465
27700,0.11193172884717281,0.16259422430650436,1.0748455669468273,0.02361955102931107,0.07790229999971823,0.007500749036510147
27800,0.599735149983539,0.5308426466890162,1.0343989818188657,0.07433987840939893,0.08942412306070048,0.02068107566286589
27900,0.25970023422798905,0.5340180605575128,0.8722799089223664,0.06205894124527899,0.05617724472406055,0.00815745764625767
28000,0.25918581323337664,0.4459937830262857,1.2860207029555415,0.0072852851113607625,0.06852694569774355,0.03367737004270336
28100,0.259449958841534,0.2918936628569093,1.2019702055677874,0.06943387276412345,0.0017839610094916747,0.025343238895955147
28200,0.10738908195748362,0.5381769128452077,0.8102058260462878,0.07893000596832632,0.043256978973435216,0.009495204728151897
28300,0.23421957072958174,0.5501920725210349,0.9443589743275318,0.06298210363538516,0.08158451024925831,0.06378106889176494
28400,0.22297640964263024,0.5152926357078255,0.8131367328215116,0.06448877812964442,0.08249429112168294,0.05278188072638445
28500,0.5745371834742348,0.5508593586677452,0.9216034660227698,0.013788933652357872,0.09735700111609691,0.01783093922177621
28600,0.26819519744303166,0.44853917979489777,0.8930774634580279,0.09072157131123264,0.03360442829449668,0.017232609876658422
28700,0.24943940459518424,0.30424811537662433,1.157661787215619,0.010487031778174772,0.008210697652275833,0.05430558997784784
28800,0.5969890432563107,0.21991907780229944,1.026189314186837,0.04901702000242242,0.08781583271097311,0.07780766296111435
28900,0.3542349226063425,0.5763999815616805,1.2830540764635323,0.0026863748347916386,0.06812363018407264,0.002356273446713875
29000,0.5699648801482659,0.2406044632246789,1.1454224436315883,0.07088082136259656,0.0011226760262623371,0.0015129565737259211
29100,0.5412514761171611,0.5385049514706596,0.9075931789299634,0.05179393841008795,0.08943021809178742,0.09575230429434137
29200,0.595417989887419,0.45375822616421113,1.2379119583929343,0.039114847053531944,0.08588332184861786,0.08182816590528424
29300,0.4494089388823007,0.5073053451883097,1.2596072162253322,0.015529543075114694,0.03897380408686507,0.07260358010235012
29400,0.2389888878424851,0.34472182224572445,1.2108425854307807,0.04494919178699487,0.0930710410819765,0.001291519462542623
29500,0.14584274176543685,0.20037572242594917,0.9721055540478898,0.03097828623562342,0.002693643577710814,0.07588650330968078
29600,0.46005267091677926,0.20051244000493598,1.1626569730680556,0.013230543708685483,0.06415609398696663,0.04750429947847207
29700,0.2429169863121368,0.5435849102188981,1.196752744215461,0.004659599832017802,0.05702924223256045,0.09366266355564291
29800,0.11402859187595529,0.211045717435509,1.1074730667009547,0.08449113303771379,0.09522498701823157,0.07863315476409126
29900,0.3453405017292501,0.527991318468389,1.0538849497987657,0.08341659583102354,0.054706575374279615,0.055167964151176245
30000,0.40333146874770176,0.14630907739410867,1.2505422342657861,0.036436086094504154,0.03356825719507813,0.05545165405449653
30100,0.41883701558523945,0.2041064619393331,1.1855093349720707,0.04916045959430354,0.07146110494197082,0.06833023310447876
30200,0.35485863290043484,0.46334997252746335,0.8128558161601398,0.022890070207185188,0.00024888155263947943,0.01264666807252537
30300,0.2646015480455921,0.531363386309711,1.0697739047541823,0.0972391374436948,0.05307485682595763,0.09848980503700366
30400,0.3155892954354643,0.16951860380024722,1.0321890762767985,0.05303896480681835,0.09658951432128975,0.0959505279587784
30500,0.3377416687998034,0.5710385461226648,1.2966769799286721,0.0694931181114026,0.09957910501935352,0.038596300764149355
30600,0.10578810701565075,0.4682764459329347,1.2312669405675083,0.007876466437237994,0.09030508737461362,0.048776026650689044
30700,0.25400259705100103,0.2670168607469795,1.0028277537013726,0.06499548638592438,0.033400512301419986,0.06718874809314998
30800,0.11760802566261438,0.1279435626605979,0.9657704446391457,0.035096097571908104,0.03698456227599524,0.0646505650614217
30900,0.5607580179144065,0.3689291530637411,1.0674994845623875,0.028812537505512673,0.006487447317391171,0.01577406222461505
31000,0.2670914917551892,0.2914011418912005,1.1459012613033928,0.03200430500990028,0.07139562598454911,0.09296079950002634
31100,0.20340280760190535,0.47123455787343804,1.124184995849157,0.03264859346559721,0.009410426898671699,0.04420714235374226
31200,0.2636119197227801,0.4884202079704465,1.1662870401999004,0.041441399125433626,0.08740738282527015,0.05298507026260483
31300,0.19723388648499354,0.4687391665056083,0.8319615297344962,0.06014140479455095,0.059199254151865305,0.023763718982763672
31400,0.20514440560759048,0.12729392242130025,1.1176765434027187,0.01126652025370467,0.01248611459036374,0.05525224364946581
31500,0.39709425190440306,0.30883319664120634,1.2503815833308558,0.034199196331828885,0.08651076152678085,0.08623378072029513
31600,0.32925975806969043,0.35393981139661246,1.2693447841259888,0.04306852031766613,0.011090731130041165,0.05432578561535523
31700,0.12416931859962962,0.3565063054352098,1.207892421204098,0.03808577289496752,0.06921194298983523,0.0901458787851749
31800,0.40217920579743505,0.30873614991080356,0.8355219746759237,0.04094990540447219,0.056576812974298854,0.00908465343336219
31900,0.13922279033478543,0.27331201072174127,0.9318987197794427,0.03994250975186974,0.03073670754033038,0.08076876275830291
32000,0.46127289587411857,0.5976074829482445,1.2586863252359715,0.07369139419770335,0.03977787142280514,0.03857471865895326
32100,0.13942929899990655,0.20858030911449085,0.8320342465640123,0.0999270072885771,0.06531936433086138,0.006932019553260883
32200,0.5635198874463515,0.10465119086246513,1.0758139195722431,0.07783391120161359,0.013978117186341888,0.009192635265638172
32300,0.4659600422582283,0.347857113573385,0.8155607566862746,0.009615025739555628,0.03561326624042479,0.06731311526007983
32400,0.4674780422460293,0.1946124252733958,0.8038820093088954,0.01738285660751924,0.05980887052268033,0.047875166909095504
32500,0.3601746554932088,0.49825007037094027,1.2772047490491094,0.07553750060574589,0.07743448551714684,0.047725530128079154
32600,0.15520069438217785,0.12949701005624617,1.0367715480718898,0.043031351243850394,0.08822731155666859,0.06305266421870473
32700,0.176034968095253,0.2627981260523139,0.9728013980494057,3.31729626630084e-05,0.07784141190969351,0.030592838753336505
32800,0.37419561418920977,0.16909169263987436,0.8497102901995397,0.08152424108048115,0.05378421774684819,0.003102956935032153
32900,0.11625560567884372,0.16957360268386193,1.0935448948241586,0.08933718291034454,0.025830673748841838,0.09125354301064882
33000,0.22982319230089268,0.5376676120591615,0.922987278663389,0.0798860441712208,0.05785134096661039,0.05066086892478586
33100,0.5655766560473975,0.173544016132866,1.2107459095330448,0.04024304013480056,0.0466630179886557,0.07357283865365653
33200,0.26611952245071857,0.48711330599416425,0.8719789309046371,0.0013515586186716667,0.05120484890432774,0.009608101601546005
33300,0.5810671418203687,0.36839829679245284,1.2292953815751553,0.01977798429031923,0.005537855508760437,0.08865793321505334
33400,0.5486414404232814,0.36102974765341145,1.1631675016058876,0.09122073490597926,0.031386205596299246,0.003675315716765859
33500,0.24712175181917548,0.4787941615868353,1.0095163187488405,0.0461953503404003,0.05972297073464458,0.07344738958230039
33600,0.48067821083240114,0.16898238797887913,1.1194359030241394,0.09624535160847322,0.0855892530494864,0.0041164522014812575
33700,0.4437425177497877,0.18749040918004398,1.015782972543774,0.06638440042054279,0.0023944224964068564,0.040839454317886804
33800,0.4870432431950956,0.20162117489410178,1.2424940582012285,0.04626943094208267,0.03599011544501912,0.03346499569124916
33900,0.23347242336859844,0.4449734538801241,1.0377622402728266,0.052928726992511124,0.05395248011278029,0.05461184882492104
34000,0.30085351627644297,0.3760771601723434,1.2021014523645481,0.07105129814402174,0.07124729495168523,0.08065502270077302
34100,0.28985559109204795,0.4037524479490321,0.8924401515962406,0.0005754773980123807,0.07682282929200018,0.09214646625107792
34200,0.2058189914331177,0.49344976489836356,1.2423789306504225,0.0720691861261005,0.08884657017995405,0.0946037423049552
34300,0.436262438187647,0.36277846555749294,0.8944721198511969,0.05509089187442561,0.05741108511489158,0.03439616144235069
34400,0.4467349463585928,0.275330391961074,0.883360715985759,0.05927335878922677,0.09421044841779898,0.025803242275794603
34500,0.12800993639785177,0.5195079407926134,0.9362096599637033,0.05582256642139743,0.032203499708146455,0.08136623755174352
34600,0.15873555663545755,0.4944218006653949,1.1071176479824836,0.01631950574070984,0.051892645468718225,0.08796960546036608
34700,0.3598801081783892,0.5792032855608878,0.8659311590156527,0.010140529419616684,0.08985738296886625,0.037389954372086656
34800,0.465008235532662,0.5672781436996491,0.825458794466128,0.06960353042361156,0.07633985570767128,0.09804896751356809
34900,0.2761298703272981,0.23509038700756565,0.8044137999674155,0.018247522692566197,0.004154394313086707,0.06817061075166168
35000,3.5089394465015484,2.5239209054862486,3.2382333259278435,0.032350973590577335,0.010656645931547016,0.045309907425734756
35100,0.1993431955297947,0.329731308044815,1.0578671653653497,0.07397891104621317,0.07459351062963138,0.09558000113687319
35200,0.5852623502960626,0.5210894930810316,1.2931189610150982,0.07493581609673154,0.001563329227276833,0.07726106084971784
35300,0.32435362020184644,0.4526557987819857,0.90119500740705,0.010872778985730015,0.0045398200299415,0.08039335386135686
35400,0.5391111574101006,0.3457464880510468,1.2875267441428906,0.08259269163072373,0.05582457194046349,0.09197585510553262
35500,0.5837436608259224,0.5802343609666059,1.0942817885479008,0.031352419302179746,0.03029063296145487,0.03773766661637008
35600,0.3295672555525172,0.48088950332218217,0.81275053423844,0.030032145356612663,0.06618569114944502,0.06796593575962678
35700,0.4990393888426192,0.14164517978998895,0.9196833274685442,0.09596123467214793,0.07068711058972632,0.012441019419317157
35800,0.48132741924924216,0.1224045693619489,1.1021501860336262,0.08157889419687236,0.07702704517439156,0.04186269608305532
35900,0.43690287068283506,0.36006365131194085,0.8218442955539751,0.057133979245924976,0.013232176602654556,0.026500934460963323
36000,0.4367331360956006,0.5074942711016753,1.2228872351724591,0.020100367937830366,0.05437713424845593,0.09722926025313318
36100,0.14769407990912523,0.1782303767219773,0.8271380629350085,0.06369581634795356,0.05001679134799445,0.04931395160062338
36200,0.13554581695434872,0.14748492684544193,1.243126998822944,0.09780598376253809,0.001897745165105802,0.049441362060928334
36300,0.5266337675696009,0.38352019429062967,0.9074917558426995,0.004624877477962752,0.03636790062740902,0.07933457649111648
36400,0.40576044713358284,0.15895363576650454,0.8907649964140065,0.09198001518867154,0.049608396746272224,0.01129805861340143
36500,0.313978913980283,0.1278046029880077,1.0166530823523483,0.09718116933264026,0.005877932599017855,0.031091907516511155
36600,0.3877451863997703,0.3534125877870631,0.8607887910574522,0.02372598226491889,0.02815504454281803,0.09092136570904946
36700,0.4222697162627961,0.5231636314135353,0.9903453196629244,0.08372806385712245,0.07060877033963485,0.05769381949807975
36800,0.430697294263893,0.5451437501149398,1.2551272812686693,0.07354053588980321,0.0073156529560497565,0.08704603669635143
36900,0.3749380641503167,0.362107843259023,0.9093386715781648,0.027081997259642488,0.023796393582152,0.04447862665291566
37000,0.5571156566514798,0.18902778925696587,0.8863970852646733,0.038703769175044526,0.025018612186934987,0.09686196252501146
37100,0.39119549379954865,0.28237838844545393,0.864044850763957,0.0809195899067564,0.09420788732683756,0.020186644246131494
37200,0.30690832772463883,0.5898793242341582,1.134349058553982,0.005746365171223489,0.053048052028295156,0.037942519237980726
37300,0.4015403779281064,0.375345209331057,1.2407261656576187,0.02659945543710549,0.056741848070605054,0.07057655024073421
37400,0.19027254204248237,0.2274091434743595,0.9043976758340755,0.03056042344619574,0.08302401100941796,0.05863292087413055
37500,0.5828658475956809,0.34829428881143387,0.8708038596644616,0.042087140081599556,0.02643336989095091,0.060155963079598
37600,0.3968203766318892,0.40733712892786234,0.9403973515035571,0.03394703045540664,0.09215513721910572,0.07980480435346482
37700,0.4367805468599908,0.4419775948210076,1.2027179432708368,0.06970050773882651,0.02154718883275647,0.05253607427062945
37800,0.25468244390018957,0.5741321630437602,1.0933860765915893,0.09001883389930015,0.05031528102425784,0.009775314572232309
37900,0.252008861481691,0.13385400173665316,1.1548348195072573,0.06744607427608879,0.06729874497910689,0.03461624127025336
38000,0.5100998063739128,0.23210925733478724,1.0697479416298554,0.05492903910298023,0.018123811055291594,0.07355141324239857
38100,0.2002370657343898,0.13532087525065353,1.093480115417521,0.021976899850745215,0.018836951751789455,0.06366526977355899
38200,0.2436629154351471,0.17575298924084612,1.204736795386923,0.033537295339933874,0.08633189080025652,0.03118372409172795
38300,0.5896858937130456,0.40707444651913505,1.1939176027608904,0.06883397141108263,0.09716143884195867,0.030205361602395023
38400,0.564404901383018,0.5917426590479663,0.8835187066996975,0.0157205508123097,0.05673293986911269,0.09654587690160789
38500,0.5908983693312444,0.21123465879592726,0.9353923105447507,0.05535581135193505,0.07469310865153231,0.03769230249006416
38600,0.2206875273268951,0.3629022701991671,1.109743430344299,0.0935171217992633,0.0420979014003701,0.026107403926575415
38700,0.18477386595242487,0.4631912806041625,0.971293637395947,0.07388446254960938,0.018592453865933025,0.08167297119753986
38800,0.41139697151469223,0.16868628137239447,1.2586406986184497,0.02152697301381127,0.030233385630055665,0.0671379094956567
38900,0.1174791955417123,0.16490324959255995,1.258960652589439,0.05891174853589183,0.07325236940470654,0.02396219780020392
39000,0.32373034600906714,0.16011775907575762,1.165058242000676,0.07540513236659527,0.07156789180992094,0.014826201245434913
39100,0.32524623645338,0.46705731177665555,0.995181940203838,0.006128744453344038,0.053336217609075864,0.0989119748303941
39200,0.24030407149588304,0.24160675282602015,1.157347691789707,0.009413771879535182,0.052451048468812426,0.08771801193697382
39300,0.29062235149478133,0.5944665609584606,1.1922756305556812,0.09168414574933782,0.08362307088375878,0.016167530417288713
39400,0.42602811163593357,0.18108838439504352,1.2645535865906194,0.01739875709126141,0.009247114892625752,0.029033960744941148
39500,0.40315239165510774,0.26681245693540023,1.0706383209445296,0.03800054617798968,0.07514096534693082,0.055161845117001757
39600,0.4718995384802226,0.4113654294870469,0.939996978545391,0.04815917859628929,0.061731190696438745,0.012165202547794175
39700,0.21127393475588938,0.12387512182487073,0.8806231229058337,0.017319485616066065,0.08898660985189258,0.025485692330733202
39800,0.50270706636279,0.10438463647265075,1.161487599957681,0.09878893968120885,0.03420952479220838,0.06884276410553414
39900,0.15268148896776237,0.1481702894923316,1.1368572573341669,0.07459570885472239,0.05375769630277675,0.056246690476174116
40000,0.5791092890929797,0.11960293408298947,1.0777310218339942,0.07446179174361059,0.0623082790292696,0.04465601445977805
40100,0.5171523583895825,0.10302872202053567,1.295082064329103,0.0991078814459826,0.008096675275830424,0.07659152757208432
40200,0.3348450268021754,0.2446545014776719,1.1942339194611085,0.04830970741669918,0.07776519884141786,0.09783494023892852
40300,0.4271724192293964,0.5265214158562707,1.0435222105901216,0.05706469701790631,0.05133269163608413,0.010761455168630796
40400,0.25169534544345984,0.5241257847358229,1.078448706950608,0.01323340854081957,0.0571194296729207,0.07446475582776395
40500,0.4697786396372483,0.5481735462981326,1.1919821424382844,0.0841126230957384,0.013106523290249906,0.06789674486886295
40600,0.4051962381243861,0.17364320734731395,1.0583047458111863,0.07142608785101792,0.07984571478345703,0.07290916525079398
40700,0.5897469788669113,0.37008948594014546,1.1284949852671375,0.08121877420593171,0.06815749596234935,0.09386747690792503
40800,0.21670255254357582,0.157878041860708,1.0189166670171022,0.02132005659843768,0.052020080066143386,0.017165222245253454
40900,0.48089902082157354,0.5546797961231116,0.819245173264026,0.02142277338538643,0.09128021487640216,0.013611749705933308
41000,0.1881480578973095,0.47189152864727657,1.0685062538322905,0.014630024787519525,0.044326337411572596,0.0033732258703496943
41100,0.5344960550203818,0.4632816717831627,1.2817644644004202,0.06446429991830525,0.06921943900369584,0.08390309216460692
41200,0.23012417678105626,0.13389859843811228,1.1509507566057833,0.05506719288190664,0.04463898175381577,0.011760074205506755
41300,0.5245957618018166,0.40758237501686556,0.9089821189152812,0.08341729900677118,0.06865680729588078,0.05246938537731266
41400,0.42988054175114443,0.46922752353444297,1.1399806235954355,0.07183185508009958,0.058839441164950705,0.04213296088922777
41500,0.3679092811196284,0.5194141689283852,1.1078583733878717,0.03350745493168241,0.07140043158620511,0.04606233866676362
41600,0.18584228245985232,0.25230500295400715,1.2526644148595536,0.03622508340329376,0.044916997195826695,0.05395631584030313
41700,0.5869761489854729,0.3677164972704621,1.1127285996818737,0.061199652743065214,0.02886302845153531,0.07563675619739275
41800,0.13047265911215497,0.15520832349738964,0.9016566327368427,0.061785563969480595,0.03821415347458301,0.09578914331331674
41900,0.2501334080878894,0.40079859720688593,1.2406175446202259,0.08904136303118132,0.09796169125071402,0.019300925808977312
42000,0.13158596751804794,0.50021361865309,1.218235036426218,0.062075644209040194,0.01994168529024755,0.04590578999301001
42100,0.22724202710792776,0.5673413245557578,0.9690430553106211,0.04583127715999338,0.024190398707997465,0.021625941288922326
42200,0.2772162922975432,0.31636665577448164,1.1895861999040207,0.005684433509458376,0.08131584950718367,0.08005573206263657
42300,0.4083307635884963,0.2170150414162034,1.2283413314921878,0.007537314867238687,0.036839866938702615,0.06643458072974182
42400,0.5451246400514228,0.4298932526430408,1.1148013046096188,0.06378828216755617,0.05875626643791008,0.07471860617491034
42500,0.5238323489161596,0.39933548113172845,1.1068496406851083,0.022854178002404326,0.0834458976823717,0.020022332041276316
42600,0.32569764072850704,0.2019211694559078,0.8583511802555674,0.0661397392655203,0.026094658145277852,0.02926827251545452
42700,0.19988350319589135,0.48722121851833455,0.9334671262357348,0.050822119860790965,0.049956154897720643,0.062163021523743915
42800,0.17429892625191198,0.10630371968181632,1.2893633422371538,0.0010227799360883582,0.07421391629923595,0.06371148033648238
42900,0.2034782028403155,0.48447231266724144,0.8859128272989873,0.04539573837613123,0.0143841989763701,0.02451389801959977
43000,0.10268514087435685,0.41671914116216013,1.0936844576059173,0.025806491069628124,0.05285674000748554,0.0038354417511576758
43100,0.23060641352102376,0.14724652338210423,0.8383803933801011,0.08300473727492934,0.03983733748007613,0.06397816863745917
43200,0.4635246961670654,0.5952527221914997,0.9903709559801201,0.009712105780666558,0.025217926329288567,0.035439739312500974
43300,0.5083373262937014,0.38426268192395974,0.9263523756982485,0.010652962378030074,0.07064207102191881,0.00111108655357689
43400,0.37171455245493157,0.26621720636376967,0.8892285519652514,0.06733534476209366,0.03855405605271144,0.033668798915611566
43500,0.1801748386567237,0.5462459615454014,1.1748102850717492,0.03865578882696511,0.0730888497555052,0.06458918679151592
43600,0.18013801813816968,0.42074131804685644,0.8794277765487193,0.02861593116052601,0.05926383001947194,0.07437815352953941
43700,0.36433214404705816,0.5133368371797032,0.8820370312118401,0.07085980842325408,0.0110078023419661,0.011573027569180395
43800,0.3736985333238767,0.31691485494287,0.8262405234181864,0.05102328311107912,0.005572128235879182,0.08662492450492605
43900,0.29393149513912575,0.29256739977740165,1.1892856948284378,0.04520595164004951,0.0793793265188743,0.07976176207466755
44000,0.28142921132717547,0.11357623919440793,0.9888100358364307,0.07137265226252813,0.03322578789287507,0.06406010035510186
44100,0.412515236029948,0.22581174487220587,1.212437494397384,0.0062306486744689756,0.03321012515903413,0.01841579914297158
44200,0.4201305068330601,0.45101089974884756,0.9547978559505732,0.08949406872846914,0.03435092895393501,0.09736312162801095
44300,0.21835413196599282,0.5496804863052687,1.1588620435281347,0.05899600923710649,0.04038118549965728,0.023285349198663575
44400,0.26299780573093756,0.5436330586899658,0.8427318114696427,0.044638702564405275,0.06695449639492776,0.08670154528120805
44500,0.16806947773594508,0.4893272577180152,1.2083604585452503,0.04546238129526159,0.03866167969292788,0.09997938481434668
44600,0.20443214912083515,0.5737313299175408,1.0637442310966783,0.07126884382335884,0.01696062200094539,0.00942412903932427
44700,0.5044181772370032,0.5905476040002071,0.9930922292710376,0.04486680356449007,0.0006654757367593911,0.03129906505410005
44800,0.3996017550155716,0.5683529217463831,1.1839896513460528,0.09052845239767891,0.08038178309381745,0.028795579334100086
44900,0.30535890600096904,0.24044553003975963,0.8526489551539038,0.02551372026773212,0.036744735562185694,0.06852911655581123
45000,3.1070707043633115,2.5022381604995925,3.213078609762854,0.05366193294551979,0.023896225912588734,0.050810760518995496
45100,0.466313056206933,0.16384396445833302,1.2032953149882948,0.08322230404890354,0.06409447346206586,0.09109855521388711
45200,0.13203092966141325,0.40780811322758814,1.0471548529472214,0.02243795485217577,0.054893704195684234,0.08698478906583408
45300,0.510605134921942,0.16423976865362552,0.8084764993186253,0.03528054165024376,0.08802009160338116,0.0066443122813553916
45400,0.18563583000783204,0.3772026040493056,1.1068514049322165,0.07132618599191247,0.003992739354271669,0.05237794504883008
45500,0.1426903311687371,0.12887370055874867,1.2852541706322242,0.044500094728011454,0.034127011105126386,0.028771382149161275
45600,0.308353628350832,0.29250893226245345,0.8101130651835666,0.056914916375388924,0.028488627203349517,0.063795761340368
45700,0.5943052388748433,0.15148511647727483,1.0533003463591473,0.008736438480904806,0.08208980365857403,0.06109678069564323
45800,0.4858535220246838,0.5208043921069017,0.9269373389350197,0.024985811601735287,0.0061741243142438345,0.016318682307825596
45900,0.44248781637806234,0.5264555413323964,1.168755817108189,0.04859372557172381,0.031550143449436366,0.07563338509250521
46000,0.25529436418883245,0.5849396448744806,1.1059546185343874,0.0698042884917467,0.08072146801826374,0.03985760447326865
46100,0.378592284819658,0.5729386141439685,1.1568253686472807,0.0023606023933165246,0.040090131019420196,0.09448646322602558
46200,0.3223896870492051,0.5342954328148984,1.131737409251106,0.009245899604850805,0.08567475277733066,0.09887079947926565
46300,0.26860711152231853,0.5886852535215816,1.0779161350720348,0.02469606149645285,0.043505690097163444,0.04598182904222997
46400,0.15578686442059328,0.4618902681342436,0.9090148980265822,0.045376314161114664,0.07405072590000863,0.08539322352303545
46500,0.15249854803778032,0.13111541861864737,0.9861840332485383,0.04194989454457842,0.08518089532636246,0.07962940669792729
46600,0.2976421425251047,0.30775688915065635,1.1493993120790829,0.018440664518229646,0.027983006476466135,0.09180578401803519
46700,0.2288766400052741,0.32555808522951346,0.8991188588143771,0.05854221530910136,0.04752013005792588,0.015892922014148683
46800,0.23610392808272648,0.22890684667007719,1.063751473813444,0.08651538099954655,0.0873924064074356,0.08679713200991043
46900,0.10768834131254948,0.5949507406924314,0.8851986109780565,0.09327123471406802,0.0005500880568712896,0.09895476728366676
47000,0.5902161041240546,0.2729521641620527,0.9288901381626299,0.03258921379222575,0.07467674764629198,0.01968237363216028
47100,0.13863680412063725,0.38666153324854813,1.2219237109906242,0.042919649999996916,0.055877320207992055,0.019915941722076582
47200,0.3840132024109112,0.5493312367677902,1.2254331439952937,0.06837800699910455,0.09953282876389451,0.06420398590864784
47300,0.3747297895920444,0.3479403917378264,1.252367805510101,0.07193114861158646,0.07358287273254259,0.09814399830050345
47400,0.277466321284662,0.11104376321574896,1.1688805136027454,0.09357325753855708,0.09633937246346896,0.0941797329973772
47500,0.3652459581525328,0.30450857874718573,0.934548856598622,0.08252966820852686,0.08085936553124154,0.004099183254798611
47600,0.30096388707261323,0.3689872058613959,0.9989505275733475,0.06443586314469722,0.08927235780473086,0.04449243686647483
47700,0.5777663259066486,0.2875432472971461,1.2088653898079287,0.03616256039268249,0.06257879486619129,0.07085188905408629
47800,0.49777871042994515,0.12035928580938923,1.0611544595998694,0.09139154084634392,0.019419768741534726,0.0054231341237218735
47900,0.47544102737510774,0.18839542665873335,1.0727766246583592,0.027309809467788215,0.037837246148909466,0.012549023432776807
48000,0.28216792425911463,0.45372412810595963,0.8266993623664316,0.05350938251114108,0.03483919071742634,0.06631706687619562
48100,0.4016729810419547,0.2307845017865244,0.9123356886795884,0.06787759264635708,0.07297849251986584,0.030043457710615763
48200,0.22782027079807024,0.49569458880152917,0.97109723530014,0.09670856160163141,0.05093252276410251,0.09446790187410731
48300,0.20177454187863167,0.21497693758528572,0.8670423536049999,0.011255113864941059,0.05985328140967949,0.05610387648439356
48400,0.16477915577338112,0.2733156058676868,1.2573090447275401,0.04252699266015963,0.006134537541738283,0.07755580867264078
48500,0.2733901737682437,0.41484060359311026,1.1007097876966052,0.0019226749551461198,0.011585782509970211,0.0345803685865072
48600,0.31983991499828257,0.20567567146011326,1.0997084805184112,0.06724360969214914,0.08966318191311326,0.08247551859245145
48700,0.18539795181173155,0.4169602883986212,0.8428038400491124,0.06095811673625017,0.0809131355010636,0.05240626875370169
48800,0.2659346228481434,0.5664815723267629,0.9805184476455651,0.0025867130060228563,0.09857575187014779,0.0004937542528112405
48900,0.3382394675032442,0.5345607717670997,0.988791579230615,0.0478801701678942,0.020746981876030003,0.021171918072530563
49000,0.38662577863392034,0.14147833685197167,1.0788260952439337,7.788200433300752e-06,0.019088034166076986,0.030800207278092663
49100,0.547951484370708,0.4798507715018302,0.9504535797207625,0.030640872440361122,0.05564774757869021,0.02095562368138979
49200,0.37453639973515607,0.5353529729686175,0.8583421669890146,0.0936861965265896,0.019104971629416392,0.044857864625786004
49300,0.5814455141740935,0.5993669362740427,0.849753669643772,0.02037239726426935,0.05595640822383077,0.04135351884862231
49400,0.35870764724038273,0.49968204127240046,1.0264958319925588,0.0821530729241885,0.07391724899221253,0.03725735324909626
49500,0.24293288279749034,0.2629508469021665,1.062869116450048,0.04774768083947152,0.015332714613238131,0.0679159463635655
49600,0.42417127496682605,0.5228135637376625,1.013370801101583,0.06366334897947759,0.05788425703170608,0.05515074335999414
49700,0.4912115095362065,0.12664478606738364,1.2138476463520869,0.04144348120553511,0.027605841038055603,0.06353571487425334
49800,0.25476386294147746,0.4122247219204679,1.094259335923963,0.015080562552870014,0.08646295101344995,0.08033271593914446
49900,0.4530923290481914,0.5391908101500683,0.883288342720663,0.015394809775602515,0.0035974772268319802,0.03654846304089604
50000,0.36585356341898356,0.4410379727017376,1.2021182924805296,0.020955551599562274,0.05870600796501068,0.09585641789035887
50100,0.4349549673327133,0.5860516713975942,0.9092859365957005,0.03964340272186302,0.002225686382562198,0.05664790184319865
50200,0.27637541048176906,0.10007241791551888,0.9793061295621333,0.04381520149207638,0.06797736838659572,0.049627354645530614
50300,0.1586349619600462,0.4677751522716198,1.2633519531062174,0.09521841955160733,0.09281515725467271,0.06658595268541133
50400,0.38043492241631316,0.13814621264858043,1.0031612829403407,0.025217002878097375,0.036959852765354184,0.06375631789928363
50500,0.48078143947608276,0.3540210702291725,1.2416786030605262,0.032078305112086904,0.00697572111839655,0.09751305382600539
50600,0.48146697895376833,0.3507549528548346,1.2932649131534872,0.04939689914403564,0.0549839856317976,0.06846363365923173
50700,0.11909504039322907,0.5152334721550381,1.0492782362934152,0.09094872562795175,0.04949600972471857,0.06344699562302683
50800,0.3939398772658974,0.595946486688694,1.2164463377885857,0.06307756712594127,0.06105064785761825,0.005284917713609838
50900,0.5435771584047199,0.4316328826288426,1.0925313905282696,0.03130301526191364,0.0743062749512609,0.08911609175220697
51000,0.47145899713899586,0.2771248566517793,1.050499934021752,0.022810428802004568,0.013544051227947508,0.014655388523419723
51100,0.5729575559236451,0.2367797460791717,1.0159351369986824,0.04553310327931616,0.0828434675030783,0.011526246255571693
51200,0.18241462955680457,0.5741080564078453,1.2593633530560666,0.04054096263266106,0.019636712327014905,0.07521790653207008
51300,0.22782645868217774,0.4775049659640268,1.1728351827843002,0.030130831600864674,0.015988192330344753,0.0700525861952167
51400,0.20618142092778372,0.25696052902357003,0.9483778302421821,0.003418047785766121,0.04015792507949842,0.01680364096316831
51500,0.342926856115641,0.3372636367608285,0.8261873188409237,0.04521784100784374,0.06073279905943453,0.09697931430337603
51600,0.40201852312457487,0.12266693520761432,1.2013477083884152,0.08625860635090037,0.014742748396759221,0.05932418284665514
51700,0.387504242239738,0.23037445868178888,1.1466929515021267,0.04104902298957454,0.032638751147074485,0.06934379784187017
51800,0.5535390162746904,0.4855919597211008,0.9854014188006139,0.04416422277045961,0.02209622877181451,0.07293270660200142
51900,0.1557759836344875,0.2233475260834731,0.8928932643603091,0.041966954194638195,0.036601684503477096,0.07260468843892885
52000,0.5406822828598173,0.37949418776857957,0.8136418995189438,0.0852745873123093,0.054938176746395444,0.06697855712504562
52100,0.39183379424664255,0.4950002779905316,0.909215241086885,0.016493148278907698,0.0053421910605429,0.012350440352061254
52200,0.2766357481059808,0.41140694994792326,0.9252831109213565,0.06123416601184675,0.07343976872060326,0.04559368676795855
52300,0.37248200737071546,0.18180962744974113,1.149342147159384,0.09929959992189796,0.0639833858719908,0.039504804733363444
52400,0.5088638175276253,0.18444537586853263,1.1377283504785185,0.017203508610764917,0.0736543326070053,0.04129820115786742
52500,0.15427544385271022,0.4045938376039996,0.9525825281256317,0.08888725663259513,0.03754187066635607,0.09027268329467533
52600,0.17338261090505566,0.49365677449221435,1.195620601933266,0.0940519102305582,0.016050756130630905,0.09054187645669583
52700,0.4332916982497872,0.3644578816505687,1.2200000178553185,0.04682494795101364,0.06624892431778497,0.09820562908627387
52800,0.5473146209249209,0.21706944387613222,1.0906836912704392,0.0073612111979960764,0.021879682885621556,0.08948063202107162
52900,0.2814118613995831,0.30490338257146543,1.0579348424627157,0.07641693855017918,0.09604094426959287,0.009394611118110886
53000,0.19571555800996174,0.2874371151340668,0.8047953390557911,0.010441167489682823,0.02433399314421322,0.023437508480212622
53100,0.44563804380427385,0.2222147912151948,0.8555659668311797,0.09378528278982273,0.0924282476382572,0.07494609620795402
53200,0.22566113315940886,0.3131187381839158,1.021519173512912,0.06162584539919436,0.0979853793844188,0.0562314133081083
53300,0.5509488715474762,0.1841371057634363,1.14040037000839,0.05649247809507349,0.03736703352941615,0.07679818671779434
53400,0.20365265796747653,0.1012844932711133,1.1771785519358628,0.08405582422918598,0.05041834746446309,0.09777523117579054
53500,0.4628157199879903,0.1727660785258366,1.1407777130087724,0.08708400392774518,0.09253448342377625,0.005101787120352575
53600,0.5147154015489733,0.38107989625124294,1.1172657550670213,0.058227528683513566,0.09127311388620679,0.0024137029791088116
53700,0.5137700928824035,0.3882571297070354,1.0012901616684298,0.019666088903006952,0.024457496742458052,0.02051545258497698
53800,0.57022668625572,0.12601891323679906,1.2009033620342255,0.045730771830116146,0.004031790083583453,0.0001292623738541665
53900,0.149365723889522,0.16667209143618752,0.9953582498029477,0.016442243266376833,0.00513451775197118,0.052795676644360405
54000,0.11573917415274484,0.3131117897704676,1.0226815796461772,0.07157243893546787,0.0806514663506712,0.06816892455507771
54100,0.26814249164490456,0.23791792144761983,1.223654080487624,0.08044746164610939,0.007919637787691869,0.004489670443329519
54200,0.5878598609913077,0.5169112375138265,0.9650815375875623,0.0006998199969412422,0.08920508829013989,0.09784111043746069
54300,0.1056014879113086,0.1625176512724,1.0899144312851363,0.04892744935396104,0.07807198484800687,0.06160618061765746
54400,0.19603718543375806,0.4629347689767275,0.9603926623279659,0.021925853261323514,0.024253760447503825,0.0731828630007839
54500,0.5653350134293661,0.2777799165389342,1.1188512968710889,0.00830246809859062,0.05034089942473951,0.03689533323595016
54600,0.19198671374961093,0.3563384926927303,0.9648393160098285,0.05925473507807342,0.04335541553703265,0.07744504522486398
54700,0.3089733534626765,0.4694311221464036,1.0399448205608557,0.024633734085938677,0.012013231780034295,0.022852961186821674
54800,0.3154252166134093,0.5286020017193607,1.183315974658501,0.04117609377480842,0.07051744566040163,0.07321377387264934
54900,0.5867819641196086,0.17752520248935302,0.9091654116950312,0.08621797166822158,0.06716650305127944,0.004890205847711538
55000,0.3530435802100229,0.5670064691084571,0.819598226765203,0.06561656009333298,0.07220579366965015,0.03754697886608471
55100,0.45790265160204013,0.3514989207368251,1.0593444116512836,0.010906377755660857,0.09830659814778883,0.019165632026322977
55200,0.1632427300812773,0.20190528254774034,0.8529536326295655,0.0533188348613747,0.0741723815837668,0.07361431672947852
55300,0.5785357888549775,0.4965560008395673,1.1758504381726453,0.0421259093285138,0.03583250211252944,0.08796924548299617
55400,0.5230689993875889,0.3583635119579619,0.924719377391904,0.03694630932463524,0.05489374580745118,0.029915229095792376
55500,0.5343457413308643,0.5070538930247086,1.1218839223838626,0.04037068486766282,0.03600124170843915,0.0008436491545614211
55600,0.11133693229016331,0.46661411473559655,0.8106986853479095,0.08340007693762111,0.07608375175107092,0.030004230937690446
55700,0.5867922085693431,0.3775884297719104,1.256815809773821,0.0696098768056709,0.00398948638381873,0.010500609541042883
55800,0.47941970354174757,0.1426958398559053,0.8683725128543823,0.09902365945702858,0.09862679424512377,0.03364742258637395
55900,0.3837645174381935,0.4190187191624333,1.1532572894332345,0.05673086848749011,0.07494413852409636,0.050091529396715066
56000,0.32237964787443696,0.41249129668411333,1.174330724633806,0.03742147426150031,0.028172458410905057,0.043550991327856815
56100,0.3826697504314235,0.42267413085910066,0.9057463114212945,0.05092805837976562,0.09683295135807374,0.055177667172293055
56200,0.27573036015908126,0.33142775276175274,1.1388000586189568,0.08697934960226071,0.0025197320460276897,0.05345723129808543
56300,0.5993928983087272,0.1600979105891062,0.9972625739125516,0.0750399669540019,0.08953786151142618,0.054058066565488165
56400,0.3489441362926621,0.22046795709979775,0.836999301825738,0.05920296018643228,0.09874128552683065,0.09524850195806303
56500,0.1709301896013782,0.1268701326794661,0.9356557289287153,0.051783685860344986,0.06683535584119368,0.010601183106915359
56600,0.21986909195333174,0.16200238545259107,1.0141717848957952,0.07606509509082605,0.04837740637805521,0.021123819554351053
56700,0.4993321384528948,0.12398076820530277,1.2377207666548167,0.06692658993503729,0.0978867496771957,0.06529586769738896
56800,0.3683261856264921,0.3785345364766638,1.2332119999414997,0.09853221879664383,0.04234396528030333,0.04578415879712169
56900,0.5936013955585066,0.5882174124053047,0.9031241041400195,0.011403878787192201,0.03370548531640584,0.05473372627432147
57000,0.38433804165841245,0.2833547344742381,1.21244370928903,0.02593559381008096,0.0871145899925212,0.045083506824811194
57100,0.42198660246722863,0.27478864485632104,0.9315289187419027,0.005219622234336541,0.05768130788889361,0.07644135396545332
57200,0.5935713857253127,0.3296307400016085,1.0898515976174796,0.04407861397066254,0.04677177326427204,0.062306691669574324
57300,0.5605137543639508,0.14559198524068964,1.2194474829171664,0.050666849701886445,0.0575795765103602,0.010292221749563747
57400,0.5071557248006442,0.5543828574408004,1.189013770092902,0.03297771468384302,0.05798788994201146,0.015264538934440864
57500,0.435231678048544,0.5690602455246678,1.0050127266815103,0.059906617759805436,0.08467017658806797,0.014568141951041613
57600,0.5496486045305755,0.10403247152660319,0.9250248547259353,0.09746780586272134,0.007767955683609874,0.07422269922710714
57700,0.24478963125495354,0.26617466186138816,1.2101508280392765,0.020026722369523332,0.031875869286175564,0.03752993813363606
57800,0.14305714727892063,0.106305584567185,0.9399135919920747,0.03842009409495278,0.06884964933142694,0.0261074485143321
57900,0.476482526680558,0.37786693318325604,1.0407041082754145,0.08073752531266692,0.0360264278718934,0.014455040071702197
58000,0.5421166410561453,0.20370416517782916,1.1399539225200062,0.09226359194600951,0.054514086417402643,0.06926022917317066
58100,0.28338755331501,0.5877491496649907,0.9334713140753624,0.0647043358582611,0.07010489689051741,0.07750942036885804
58200,0.3103984614492915,0.5616898000840681,1.0453582303986162,0.07192754432608153,0.003038604301249648,0.05334297910460309
58300,0.3876057020998436,0.4457903625687958,1.050776875939021,0.06713127320343235,0.08736162536847371,0.018596922340418067
58400,0.2813105883328786,0.29751296109013325,1.2553954177385138,0.08803765235231681,0.0015017780314599994,0.059892400408637574
58500,0.47068417962517717,0.5403662218986871,1.1070325803725534,0.04295534007951451,0.07595796131696846,0.06725373483959363
58600,0.5419402557412105,0.30529953024562373,0.9640843655596127,0.09978989201996954,0.03524264750558551,0.001686854694353801
58700,0.3005492044998851,0.5530193184436584,0.868408618597307,0.05844866221747657,0.03347590761317104,0.012221398654386451
58800,0.325871562533822,0.5209073617991008,1.0566695915972404,0.0512376742364589,0.04582847407809551,0.010352871019003963
58900,0.11388132881514082,0.5139378303004303,0.9834051029570021,0.0545986840200577,0.06573059079186819,0.08427011096291614
59000,0.4300884746555056,0.49817504100949295,1.1765940379976716,0.07986472754034962,0.02191599572706762,0.002808941286483502
59100,0.4986117956204482,0.34866522295442426,0.803206574855297,0.07163471457785996,0.037539014191261114,0.09876272981412576
59200,0.13661701714586386,0.5505249147699695,1.1356789715883413,0.054625031350556574,0.06692645770479339,0.04309860868830681
59300,0.28352601966332747,0.5566649775413406,1.2155867064739052,0.029521889384132895,0.020845389399468606,0.004537658930620736
59400,0.28351611416364797,0.2499924789403822,0.9105610485030776,0.04268564357552682,0.06768589231093966,0.021218208978241938
59500,0.5285161148341838,0.4354741735327017,0.8262130015079965,0.021308154084632203,0.017721036346989127,0.04144429159864149
59600,0.13357712782347256,0.5080148074330123,0.9202910775133215,0.011576506392103515,0.04147021406827689,0.045191460238436655
59700,0.32536563375613115,0.3349213950246259,1.1695175566023595,0.0007876894618603748,0.06683651393121931,0.016715940300857334
59800,0.18593117036788429,0.3639163489441577,1.2459328731499564,0.013405793626177021,0.05627378497707898,0.08565881488376256
59900,0.3476614803173095,0.5046853224989744,0.8516141688948837,0.0636484278587109,0.010147953371678398,0.08591087748797696
