t,ax,ay,az,gx,gy,gz
0,0.38268463380782203,0.5213724408736188,1.1010412711117907,0.019488749223576775,0.008721592471355377,0.08016976963380817
100,0.4154876194863345,0.46192491192152596,1.1657248675777165,0.03784359109898914,0.08905101633699239,0.05515574059621117
200,0.11127289807977478,0.2602432403293662,0.843226124117952,0.061318048276002506,0.05185581105998719,0.06855887043837677
300,0.2765417694357105,0.5317125500404964,1.1966484320073079,0.05321900072752342,0.06274168417392445,0.06362401627735599
400,0.16341975807683998,0.5324465491706802,1.2748303498302413,0.011935970957852439,0.0807520976794482,0.054081517557114434
500,0.3507139241968532,0.10735670485403151,1.0549029363086198,0.05947531207397282,0.05180102041459628,0.06030351269562524
600,0.4142833799074276,0.30770707585164114,1.1471893455315247,0.0971954756541154,0.054223041016990714,0.09792873806430168
700,0.18181688090840978,0.24184027820865125,1.1680588190927041,0.08881778655895121,0.08976777246580259,0.007295583705647469
800,0.28246864235599956,0.1903023983782471,1.213178829579536,0.0842541382839002,0.03326527789484877,0.08985036896945285
900,0.3375779904400539,0.5829919299940441,1.1855790761496858,0.032878710000153424,0.03257402997480794,0.003381341946810046
1000,0.21576541992210127,0.18365737350209535,0.8251823235236102,0.07903211423014507,0.03222194267937819,0.02099545741914821
1100,0.5238837645244602,0.45449185463806774,1.1747991016800945,0.09139326370114348,0.02221903674395881,0.09726000805981021
1200,0.1697238246371142,0.5677776205676799,1.041093663284804,0.044883463968380825,0.07166012624562565,0.04073872426825803
1300,0.2852488610668915,0.27867296262822994,1.1957601576460992,0.02395269398003909,0.09603880464655043,0.03508112814294032
1400,0.44982972779692454,0.19628037468202705,1.0028939348088408,0.08676891056090329,0.09059343742971876,0.03453433197916335
1500,0.26018451772633433,0.3403440307092732,1.1930348785612945,0.033686137626738326,0.0838969764868267,0.028455620117561344
1600,0.23875385071073088,0.48565849738882694,0.8636703757629081,0.017390680593741416,0.09172093656216448,0.08941132862508176
1700,0.41436393965647256,0.2200805917619171,0.8942904072079236,0.04145289941852316,0.05621185794684325,0.03684813098322678
1800,0.3943285505303419,0.4045813394505594,0.8548403976606156,0.0925497416552702,0.03665123368474772,0.06624178195026531
1900,0.22260721729099955,0.24145844705104488,1.0885475100262316,0.00024809871854829523,0.052333883155033484,0.09941192064238541
2000,0.35298150906847714,0.14250338975881102,1.1520226565630822,0.04429553715490301,0.017861742087639087,0.01657604006571407
2100,0.33516478918268633,0.11542960882060546,0.9942576198952289,0.059734752121821444,0.0013780902839777955,0.07595519053546024
2200,0.5182289989066418,0.4144750663003015,1.1470314246364173,0.07194829895376335,0.06654689233645582,0.09612752417558929
2300,0.19773194442997452,0.4175800063867584,1.2247652524728263,0.046571178240214076,0.01498050126448024,0.08238481003557048
2400,0.3934354647678626,0.2491472498883818,0.8869705532529172,0.09246133147594367,0.03279880173728764,0.07054548556402647
2500,0.47075566856063766,0.4219323779667207,1.0084809706543072,0.09131993108204817,0.03106338800290842,0.09157364311363109
2600,0.4484057543335609,0.22222674464303557,1.2942529728786913,0.08127998357524634,0.08630141472135519,0.08817415977769981
2700,0.20834432316235116,0.17014377796749788,1.2384592242491284,0.06949092490696421,0.01140552786589385,0.058075143013993795
2800,0.30032680380707355,0.2859299761779024,0.9514503355434692,0.06258179742638512,0.06310970291595333,0.09222463317891094
2900,0.3699970673378673,0.36593303682314793,0.8820291407378353,0.021208340596833044,0.033115676947720975,0.05094714680828808
3000,0.4642291705954237,0.2133891888454982,0.871787374892202,0.06513201817000518,0.0709911904267233,0.018471347869545386
3100,0.3807624883905134,0.44053978490407153,1.0218218633087086,0.059477005623794155,0.07572939296732617,0.004900055827510608
3200,0.3883519993989528,0.2900453670479409,1.2513881045312607,0.03336267442651099,0.012085201830443149,0.08518910617123193
3300,0.14081088301861025,0.5506767313978981,0.8598626953213365,0.0501519914554455,0.010994875030394702,0.025197099129527424
3400,0.4219152345985002,0.4394952618884186,1.2358496107160277,0.021123124663915884,0.041517329440042286,0.036709482877972564
3500,0.5520345711248147,0.5531757560635345,0.8028875634485393,0.08845426539272855,0.03626149924563277,0.04066450098632697
3600,0.45978350814417446,0.43340582720510024,1.002038988477906,0.06677536037677288,0.07986488367473277,0.026082833555567043
3700,0.1450021604282171,0.5706442709887442,0.8672259232404516,0.03586123536351291,0.06873930105785123,0.06918439644045928
3800,0.3335288826975523,0.36931996223103736,1.1394870420005556,0.07386598343015725,0.0027349233069159265,0.09282593176477283
3900,0.5638228900095696,0.5898938320713552,1.0776227763573505,0.015289763592477391,0.09127354682639172,0.053145165711903836
4000,0.28602924355917314,0.5570834169845247,0.8871552791984645,0.045192487530503304,0.0957081101172648,0.06164480612058875
4100,0.4693239378800794,0.2041021771466284,1.2655573244516816,0.09843569937773305,0.004715934808203171,0.05373875510307996
4200,0.14161298867173108,0.2918428459066198,0.9412124715488663,0.04961775193316084,0.08693106263667086,0.09797260580370644
4300,0.37603169545040516,0.4220454892208434,1.2169205563763716,0.05941290936095716,0.08052489795043846,0.07130619776000591
4400,0.4404807795217872,0.31218422173758553,0.9274617322626615,0.05243171285267702,0.03539814368624056,0.005587740218325899
4500,0.39010191236419345,0.12367313740008398,1.2803217266010232,0.040246274738675515,0.024979913134045698,0.06928696623419761
4600,0.34197591599853217,0.47175233293420193,0.9315113715720219,0.06595224167959889,0.06017952750783682,0.023100319233223532
4700,0.4223253242214725,0.585204514020804,0.973415444664697,0.035223343784575145,0.007728946585867935,0.08366642964099791
4800,0.1257508414734441,0.24982800461550256,1.2844394395659413,0.030970375238845695,0.08731049905612204,0.022329611984636878
4900,0.4251357094521807,0.5970608070264358,0.8492254018448966,0.09775832147559659,0.09860589658751108,0.08835259333406564
5000,3.312412961320619,2.38540134198033,3.149701170748949,0.02710238304365663,0.013592966583960654,0.05033930626296277
5100,0.1317527622053646,0.5484991797813341,1.2612328665921628,0.043920670274803175,0.07879886350444447,0.005257936122949747
5200,0.2222585474298123,0.5698358641179379,1.2507636884188158,0.08278917180677159,0.08091824227247921,0.06795744631754562
5300,0.2068799794929095,0.2961801902643656,0.9879331515985252,0.0666875231359143,0.0436037828284656,0.00496138564007006
5400,0.5028040223975515,0.1641956591422972,1.005110309183558,0.07387025115885341,0.03844489531979082,0.04276279060114392
5500,0.36664081187779496,0.4678098248325566,1.2573635438826012,0.03408329023549052,0.08215960188846604,0.007538793364570962
5600,0.2966264012186197,0.5190733685358648,1.070229559373879,0.019898000916280512,0.08776895257455783,0.022287678729659057
5700,0.4670228111537693,0.5055595345721597,1.051228731448658,0.0026842727409261747,0.09536996593791622,0.08835955148449529
5800,0.24848848591434616,0.12523465726929486,0.897745015772347,0.028316891783869858,0.003294387520670783,0.08936450431161574
5900,0.49208411201156954,0.5020813085778175,0.9098832339506011,0.027059062304405513,0.02784531951113285,0.03881611868480944
6000,0.4990983520577692,0.34788269296267893,1.006002055409547,0.08546667790541446,0.07401145465101559,0.02059577879503485
6100,0.11815907762252467,0.538957624137047,0.9315117006351697,0.03882671606090016,0.05595302228602938,0.006077223827106893
6200,0.5107301954618271,0.5427105859010354,1.1200524216173884,0.0333942555826708,0.026606289770777194,0.06301976289751175
6300,0.5858134836215332,0.5174793523310978,1.055023736740173,0.05382544449986838,0.035727043984108364,0.08522780246887475
6400,0.5704318894161917,0.2769802350097401,0.9165290939468328,0.07547642721836018,0.0034971707958659005,0.07423414487799947
6500,0.32132402700278817,0.2345969562124037,1.034611224009864,0.07457837109873618,0.01722452551185141,0.023689136241319676
6600,0.19584923798251938,0.5084432028115304,0.9916845009848567,0.014254181254092857,0.09252604570940431,0.027879773199116855
6700,0.36168013147297595,0.266028550116588,1.164810245763599,0.009647698862819333,0.026701231757801015,0.07264828728367423
6800,0.427887508417771,0.4312964225110486,0.8697717191804423,0.08546101061328698,0.09966119296666713,0.08353435183072144
6900,0.3722140858323355,0.24518967815615042,1.0521195861369448,0.0014201504182937532,0.09343571126167262,0.07045906426621017
7000,0.2762127864245848,0.4676529497597608,1.2295046306040578,0.0568209120192001,0.00200978439542322,0.04378081980824555
7100,0.1644661357526668,0.4648843704339741,0.9207749743932678,0.023982742848909267,0.03121574348623061,0.07078802156602995
7200,0.1051911434316676,0.41209799203706077,0.8620512218817471,0.09266788280298205,0.08520282076193726,0.01361747105565111
7300,0.43309365467264593,0.13461726245820224,0.8344946140177414,0.004993614603948704,0.015201102821024881,0.03891863893810234
7400,0.2290033778344199,0.2776524112021501,1.0375901892950379,0.03209726025927784,0.08110586156029999,0.004575443425966186
7500,0.19687185792313797,0.25831073836551455,1.0738359093473782,0.003837853696352356,0.01904748930103103,0.06329094707630602
7600,0.2979799663545317,0.3541086734129615,1.194140724406172,0.08729738989429243,0.08702067346903737,0.07752824262778835
7700,0.24461939981380196,0.5326644399303316,1.1626196246414477,0.017839463368873775,0.06170310353000326,0.07893524676029152
7800,0.4994061452232085,0.2692725403707389,0.9378973475901664,0.032549486378512085,0.061459249142760956,0.04925546450287191
7900,0.42410072034944424,0.17124230929905768,0.8490997899359313,0.053614879159727014,0.052271823851731125,0.01684393061636017
8000,0.3579274338262164,0.30491491876610743,0.9497366817139332,0.027978362134375857,0.024022501903336616,0.011229298121628685
8100,0.2499988854582115,0.28683920806247487,0.968534151418771,0.09767199902021695,0.06542427447510663,0.096502144442271
8200,0.24120617571663314,0.39550042242775485,0.9999770883705095,0.002803675733824762,0.06936669087756968,0.09030314615429992
8300,0.5166484421003663,0.26817061262115904,1.1729214731358222,0.029574543977450476,0.003479140873626785,0.04435587250462078
8400,0.42110704980617497,0.3916910033923058,1.0087598297085132,0.03083336559365345,0.0006722744720852659,0.01293912718403465
8500,0.5796562923730805,0.16373126575118072,0.9511853747471772,0.047494791652115426,0.050769956147070056,0.06071601551587122
8600,0.4618909314882189,0.5269720489756887,1.202723272990697,0.033005350732053684,0.08592771007670241,0.07195901246943467
8700,0.42675039477383214,0.16776518301154428,0.9728296293702838,0.01372511178504441,0.004208836052552101,0.0998796332282963
8800,0.4487983283512209,0.4803492909938121,0.8953131930590797,0.09514325120771439,0.05899046656362256,0.016390596019084082
8900,0.40930935277146396,0.5105248409337515,0.9507643858502103,0.03404638044768689,0.06636814332630607,0.050743158915123945
9000,0.5596774660057025,0.2833450885395232,1.2206170183235714,0.07289313851397825,0.012039985773817086,0.01667308600438523
9100,0.5086051418275077,0.13460772442035887,0.9122414078668442,0.019291147725917147,0.05147225129286908,0.011190442537338986
9200,0.5845311916280913,0.5765612375360097,1.0977767014331046,0.050305141053570326,0.09103707328948567,0.01958764613510774
9300,0.3274216393079058,0.3547731219585398,0.9133070393431314,0.058342874838562764,0.0384118280320664,0.03051862989498906
9400,0.12016599498346156,0.4846913839154997,0.919651186307427,0.015971867058144195,0.05613190955976575,0.0005237562204125412
9500,0.3319901857215519,0.569179008601372,1.263344028974152,0.026902665140678697,0.06662948688014118,0.057165071392991165
9600,0.5479027271409247,0.4222014663137438,1.1406706641270286,0.07427212221660201,0.021188621096041107,0.039161136910180354
9700,0.30105355969564895,0.5704954254185249,1.1860312653238672,0.052413745579057085,0.04059047282988031,0.09128043461239961
9800,0.41891186328967733,0.2778630400168237,1.2278361438044332,0.07227064997545085,0.08323923881245589,0.026760681900896588
9900,0.23110805127180292,0.5725921926122136,1.2655033958379047,0.0901810701556423,0.06129730607369911,0.026035756585751402
10000,0.420142572844617,0.49691311109346714,0.9302208451020515,0.08088916878691317,0.08316417737629364,0.09101274406372788
10100,0.45734711419248464,0.5823584391776687,1.1613765023905052,0.03478929989544715,0.08481096472810441,0.06223391591024577
10200,0.4012845208484227,0.1849887745462557,1.0819341144340224,0.0047880326234987615,0.03162895067213221,0.02410674401991758
10300,0.24693873867773877,0.2791191339163812,0.9563371372732661,0.049995877918920864,0.04407577468314314,0.052474755472536896
10400,0.531250746544263,0.5352728947524744,0.8984002728720986,0.058319329737920894,0.046479524829490707,0.06920744279280457
10500,0.16236262357524425,0.1938287709149644,0.8368112616220038,0.052068878350585435,0.04787794925921617,0.061173247482312815
10600,0.2115230967064223,0.5704363423775409,1.1800615940802897,0.047176785716891316,1.764204683355475e-05,0.06175194246665122
10700,0.417420458884896,0.5368667299527066,0.8660307202993707,0.057056457771699834,0.08201168356670578,0.09604381554780911
10800,0.40603396686760673,0.4354471953248058,0.9390523694982613,0.056939313638851755,0.09216192862997986,0.08164434568646545
10900,0.25976128697018364,0.3530210448547959,1.1733716833569228,0.03599098053000066,0.09607781224102097,0.06346585115873325
11000,0.5340259723033072,0.18999903797499587,1.1747769886136505,0.017087323781134024,0.018014436191175865,0.06037656764226826
11100,0.5117520735180233,0.3063599875697184,1.0502697364209685,0.02772970850110783,0.03647105709202915,0.05051221773064064
11200,0.32431434830707906,0.5847399669857547,1.1416963883150435,0.010939945501803251,0.005715289373732169,0.0008447005159220033
11300,0.3218623867160776,0.30202365480138194,1.2207499156142494,0.022735700933228943,0.09168950892463033,0.021105255990709195
11400,0.4070302873844426,0.4236820940886047,0.9395188326123294,0.04181803759952638,0.00884579396510663,0.06879151883200069
11500,0.43955995860957386,0.5599183053531253,1.1697905988702315,0.015640035446907497,0.005341938062703045,0.07451670617421506
11600,0.36979587380663703,0.42718610666139356,1.011565343461668,0.05996623919452259,0.049666970900444474,0.05067627700036394
11700,0.1811139190489295,0.5331662261665895,1.1269537335528952,0.07574874458004227,0.05084818681282917,0.028919271601105457
11800,0.13567412231215745,0.1447004586760892,1.122877130114438,0.09117406935565216,0.06742380010726211,0.07136786360566176
11900,0.1676375061077033,0.44840278552709634,1.2991224021565237,0.020748106178326155,0.05259374265045204,0.08615641647195905
12000,0.4767170170187853,0.27006219555998034,1.0262222803207375,0.08843675142237896,0.035402005474403385,0.046537932593464885
12100,0.3357673215501459,0.5291945977462295,1.081935761027526,0.0026184518155070503,0.08017126865484399,0.0007561202738800122
12200,0.3021482304132189,0.402604351278548,0.9175777150473343,0.06187330770385663,0.05675618488073734,0.07351999515110756
12300,0.48922722843765243,0.5086422879689013,0.8075779928231874,0.07116798342374646,0.05422966791101156,0.020994354178341702
12400,0.1495142940124907,0.26720981075538486,0.8797387170217619,0.09088320798568225,0.007123468407356815,0.07170561415180197
12500,0.16587442081125062,0.3058490494727446,1.1368414295860798,0.02645314634638182,0.026281864202654315,0.03256279284134807
12600,0.5909134791278562,0.5825617951673243,0.9289838447638119,0.047325249417442254,0.0809159765551589,0.059374498575666845
12700,0.14734040306723192,0.26149775100698447,1.0719909237880807,0.0826731153094283,0.09223470954995323,0.03085669743023788
12800,0.47502726301486864,0.3482393472482207,1.137647644453838,0.010376069254619103,0.03297140851267293,0.03853402709729538
12900,0.43078875812780737,0.19567197410199852,1.0242449087670618,0.006561798243368744,0.08065997584801554,0.03566490868627107
13000,0.13502159127704397,0.28988024046895566,0.9181060332516813,0.09960992177778771,0.03619697483085821,0.01230030424016203
13100,0.46759564777786444,0.23062508533677925,1.0553914508120694,0.04036620107103322,0.019120370181953318,0.08594792220310267
13200,0.4148521192599428,0.48716819450476245,0.9323413681156285,0.046430641445110755,0.031151159016542886,0.07440044847501845
13300,0.38895331304353287,0.5327377229024102,0.817038198608985,0.08115141989264907,0.07935805923200323,0.08695161960918486
13400,0.4209174171202106,0.1573104758694567,1.0000041692673982,0.052659504811499884,0.002772510613600632,0.02369765728670671
13500,0.2315782751949533,0.2435926896175941,1.2967263578708552,0.054426789627638396,0.036450017889051445,0.0407660550440516
13600,0.15233746713858862,0.262172084277033,0.8070577974707666,0.05596905299739368,0.09526817972065213,0.01722758692039217
13700,0.28761430529374177,0.20921933453813366,1.1081109116725598,0.013846766869462446,0.09804297819391176,0.008914304837158127
13800,0.4621493990233332,0.42650963033874645,1.1067131771571153,0.08556606891475571,0.019439015851801023,0.041210316569674124
13900,0.25102308733380785,0.23417220664553848,1.1927718512763854,0.02549478335736584,0.047279058961426736,0.04658607818715883
14000,0.5714421449285028,0.44918284327850155,0.862378730783695,0.09713394877491066,0.09024214152526444,0.012658896937283127
14100,0.24387205900821243,0.46525630122612804,0.9655540768381604,0.07410616932927744,0.05064655095266209,0.08519386940799425
14200,0.2272366425514358,0.22889529274092865,1.1713424398785406,0.021820142372291962,0.026691365934257073,0.04753753666415305
14300,0.2083764256719264,0.26516339606327033,1.1674755754774346,0.041812642576847296,0.09335594055846044,0.0336980032349109
14400,0.49930682736566756,0.28035303165871706,1.2722669935455089,0.09682536776902269,0.023276605482211356,0.045143561408618554
14500,0.1410287917138143,0.4725663135725262,1.0766012949830648,0.052829159553975595,0.03182326554133739,0.025060298282954308
14600,0.16439273338761126,0.1564219905522343,1.1879235455154937,0.08191059425002395,0.034838272570036875,0.08675325651676498
14700,0.5162134011569608,0.34811455079984654,0.9637057761333218,0.09451674489170271,0.019161312022251575,0.08402357429358956
14800,0.16392954285746728,0.4986826492067953,1.0436176905871255,0.07633851188187712,0.007181032206224925,0.08518055464262876
14900,0.42295645139126825,0.17842121032778155,0.9080113052901526,0.07346187850558232,0.044234351358059934,0.04886070582939877
15000,3.2781324528260845,2.330754351040567,2.8267546811673823,0.04352229604753774,0.07717955695112337,0.04472924314684196
15100,0.588050296805855,0.4855720580409475,1.204761128839999,0.060442265288284086,0.04484275299672862,0.014027709363567243
15200,0.1809251567606923,0.4064357624757602,0.8965871998904997,0.019783100891525643,0.08523530206975498,0.09278958623061029
15300,0.292040819055817,0.30149658631104914,0.8201961282586754,0.00782499131562371,0.018632304554976588,0.06014736088055777
15400,0.32389672160847705,0.3946579764589091,1.2064828127512,0.053351002816290696,0.035353274120409804,0.05538531552997075
15500,0.21566460501852772,0.44392441600699617,1.002859133523649,0.019390626065965103,0.0840745615100936,0.014880789688703834
15600,0.5233426874610592,0.4656399182467589,0.87094246555302,0.005353977359796958,0.04978924440638543,0.03530739990034115
15700,0.5622356222338419,0.45405244561230274,1.1806941247655247,0.09061330022702857,0.009866039960169215,0.06964816275924417
15800,0.4506432722136099,0.45234503554410055,0.8380048849739944,0.06750825701040312,0.09200436358431652,0.002802109541414233
15900,0.41808916134098084,0.19698415946603368,1.0577464205886802,0.040062191173605745,0.007198585987851125,0.07085119333743643
16000,0.46816671510858987,0.22950417753475175,0.816573980921036,0.08366731869830975,0.05500115403131426,0.0018019289914551152
16100,0.11892079674309688,0.5925954712489473,1.2767913544999236,0.05100102614919573,0.06940371756041631,0.08490467608212422
16200,0.46037503852690864,0.21729776876949627,0.9989645201055579,0.08304805267352866,0.004628207698171838,0.08992609288722635
16300,0.10722445677609774,0.2937481809289728,0.9879677454444367,0.0901005548494041,0.09020593626844545,0.07070497076484729
16400,0.22391242630424132,0.4435767577498507,0.8215482465719453,0.08878790433049072,0.06610882483717256,0.07967095077280845
16500,0.3616307160930603,0.17911264527324403,0.8921104385849059,0.05001095840578406,0.0030853755738923907,0.030955730865118016
16600,0.30860741513851153,0.4991192261543407,0.8315285334857971,0.07101231571445946,0.01789185667332398,0.09102607771881165
16700,0.40106261811844746,0.22259635853404972,0.9990153299299122,0.0582059064262135,0.09022339982097753,0.05023531959396576
16800,0.46727534360161216,0.33638003217344004,0.9945377280871283,0.00921469491307667,0.023115786905122605,0.033249358095307636
16900,0.3731096042268707,0.31896340701320325,1.0561143202821468,0.004237621437022188,0.04821970922412538,0.06010264011836989
17000,0.2701647002471165,0.23639031925762308,0.8755135846136678,0.03856517564872952,0.0853878647795068,0.09471250228341142
17100,0.495598802999213,0.5976546213116444,1.2483150931309879,0.01257494263293253,0.06051133718291755,0.0696272305511439
17200,0.22814053381014285,0.4970609312400298,1.259142714478434,0.03413095470530871,0.08183556276796325,0.06530796551093764
17300,0.43629487700584335,0.3199777926597561,1.115277554708351,0.05719577240141706,0.028671507229273942,0.0832407229443524
17400,0.3867554172427171,0.4273173673640216,0.8428545398665953,0.06210822336019387,0.012692643779395975,0.006617030427486837
17500,0.3109951268385118,0.28746085428645796,0.8129649347468306,0.0681909067707576,0.07976266274931801,0.04032229100013282
17600,0.26900227393361165,0.3643779957273995,1.2773955882466819,0.007396691899604313,0.012452361345558317,0.0994313341795951
17700,0.2785749033651054,0.24109488958489464,0.8748244926740327,0.04140208951243392,0.034425805097956785,0.03242422507885101
17800,0.5097029071222985,0.5760432589887995,0.8259179639621608,0.017071944477359848,0.007489804680355639,0.01584550013753887
17900,0.3444810875503579,0.4017435985035781,0.8929203956606659,0.07556924429492828,0.06729537981493165,0.06361769882830692
18000,0.16540840963603234,0.47138120909807013,1.209150233769059,0.07810391566981527,0.05293308491574057,0.0019015173094583339
18100,0.46430293869805717,0.2776273614186576,1.1459905293490804,0.010481491774577058,0.048512277155698086,0.08317544650485938
18200,0.39618169856181995,0.2244511788386828,1.136745061703803,0.0897163638823942,0.03283320314552525,0.05037404582235603
18300,0.3251627844384585,0.35638230455482345,1.0124341830634982,0.0361959012707875,0.03486432989194332,0.06497301440606047
18400,0.43779763972339003,0.3531639500326512,1.1854466651379574,0.03863833711020157,0.0007914014016077942,0.01710722490936103
18500,0.11288252738919288,0.25737272419774515,0.9380065563193376,0.054698003634801685,0.09528292128048425,0.007886606885295966
18600,0.46381192908222124,0.20781065524568318,1.0770496560276033,0.018940181300422056,0.07643948758002356,0.05141291531925331
18700,0.3688634119279536,0.4583438832335651,1.147347983720208,0.022386835662139917,0.07781292215710019,0.08482285208319475
18800,0.15461529471954963,0.39140551731740414,1.087558204787125,0.09332624158435238,0.03906017659269026,0.02169439836771733
18900,0.3991065639920065,0.4543532873637556,1.2590586283366543,0.0034077439751575515,0.05039847186236919,0.046493772893489715
19000,0.47063140264936376,0.4638242948022572,1.0708945847471507,0.05729893254416805,0.08272075253848238,0.07163948042361715
19100,0.25441385657736815,0.18907649721815237,1.2940123375877701,0.02671827585054326,0.019413835654973413,0.040990343491180185
19200,0.3979578528547638,0.24689855227461352,0.8569094479367219,0.09545372235541577,0.018095550558594842,0.026535957777989807
19300,0.39582429747329273,0.5229633550081688,1.239524079970315,0.0424728169705445,0.006979078413035578,0.07962563194466399
19400,0.21030451328032693,0.43724535369138107,0.836615530338792,0.00830090885382574,0.039068488235307425,0.07577743719459562
19500,0.3212173802975221,0.48370861738612136,1.2681807924171218,0.018381031461126275,0.053215616208431175,0.05150774876559441
19600,0.2511677212106471,0.5917528341122855,1.1643975631821242,0.018865216958274977,0.06911659205528536,0.004860723011706392
19700,0.5820360137053041,0.1347247442437786,1.2535445529925187,0.05921920823182128,0.005939991047981864,0.05451025052815122
19800,0.1350059952422448,0.12521556085190952,1.2623579825208158,0.03236633095493049,0.015734053539368,0.01348189638544316
19900,0.13684050701981917,0.590613850604611,1.156877953651126,0.08371656929163934,0.06745619735729994,0.09242615190891873
20000,0.28671424636057763,0.5194625358608207,0.8192513984923215,0.09332199176978234,0.013198835739007188,0.07424935457005365
20100,0.27892097082989076,0.11457762420774978,1.2395343848935945,0.00431089319952328,0.06632052846597217,0.09068108283226034
20200,0.5130611095013691,0.3548137379270605,0.8503686830006223,0.03277329270130032,0.039179974551259725,0.08039378449378803
20300,0.261245489294025,0.15605922077513815,1.0127478626209587,0.009280354347387887,0.027792454987723716,0.07260675711812146
20400,0.388344252183193,0.427704847044698,1.1718155168257791,0.05509411433035114,0.09824181099546367,0.027261455861204834
20500,0.23652663285764777,0.5961256327718916,0.9575891995603197,0.0689254255798547,0.03684038928559148,0.011448010385134967
20600,0.41165406598209675,0.5815798469727753,1.1980305340841968,0.03798244420543673,0.010594825253080498,0.08699520733581187
20700,0.5406450749346214,0.45208485128877274,1.2741135564121475,0.09781639550039628,0.08301046248052711,0.0003867364796968254
20800,0.5222051344677429,0.3171231892211026,1.1599770740806727,0.0459881440399627,0.09188373698984025,0.06371729722862517
20900,0.5451562339790824,0.20401004245256985,1.0131877353113714,0.034051619629405554,0.0958369575877106,0.06484788470475181
21000,0.43853741537917257,0.5003602701446695,1.266118614706174,0.03845877847419617,0.04727284147201708,0.03504272226020929
21100,0.11926652513584787,0.14166055527248791,1.1695558047144972,0.02000642856546725,0.06485667311980194,0.044282867884346926
21200,0.2399908371070669,0.15226107786896256,1.2599599748494477,0.08237860716418999,0.014098438818087523,0.058081629880859076
21300,0.2578368405306475,0.2423449870389082,0.808310107623067,0.00804033118667743,0.08340394559603326,0.013451458075706125
21400,0.4092863479753234,0.5300066931053262,0.8166769069153463,0.05384723244971177,0.032660536069707334,0.08077014695906536
21500,0.3552603242744067,0.3775614316702872,1.186580239072384,0.04926983502100279,0.04285685229781242,0.09067616313122642
21600,0.27419986088795745,0.2675125799063519,1.1930061406972605,0.03031762404270455,0.0856732257894575,0.07371213788317409
21700,0.5774856716979465,0.3475030745308544,1.1191746686628645,0.019196179699409222,0.06164668793815201,0.03866919803905214
21800,0.3111757800872559,0.1542851677134854,1.1102597809265238,0.05516204187566918,0.03414062241939033,0.020186148800324235
21900,0.5895981882653648,0.35504081092323847,0.8173746970677237,0.05669607688054205,0.04253410102990003,0.05274441064690627
22000,0.45736165974438536,0.5366647171490516,0.912683574477872,0.055664143365640996,0.020010426881518828,0.06757939747629185
22100,0.4735152398864514,0.5225277406343164,0.8026582573162261,0.07561559500509905,0.09967427624059025,0.08345099897269338
22200,0.41759902310445507,0.22653678158918564,0.8458940767568305,0.0449654018115323,0.08055483864491952,0.05316374699585134
22300,0.37041000141492453,0.1448797078787434,1.1657182438417597,0.09479580969550444,0.03879413085004818,0.05799273383501961
22400,0.11240110439817694,0.15766772387898045,1.2654557069590666,0.08926308615076378,0.04281999970838782,0.03214425293488894
22500,0.4366745824620387,0.4406271073057392,0.8764137208612999,0.06826242713364855,0.0840769703709299,0.016715479631151775
22600,0.34521332445852215,0.5891747569701983,0.9172389097820814,0.06351236350352206,0.06931856346467793,0.07663659788342649
22700,0.38371146951399326,0.5079068312412008,0.8973450371459541,0.0909970311017792,0.01955772568658386,0.0893887882757417
22800,0.15038168093122442,0.3524118354593555,1.1082119593532649,0.05225644692254823,0.05976959986222427,0.00995989044100245
22900,0.17705263246505462,0.3499606090528027,1.1496503984639306,0.03096585103046791,0.04968143747429049,0.03203257751744062
23000,0.4776126532909054,0.23885453684232136,0.802507367888361,0.03761408282003836,0.07017680528161652,0.05760660830711585
23100,0.24703357329980566,0.3204892205498593,0.9859551154312669,0.0425565878637046,0.021305473684657995,0.018758391455768766
23200,0.33344705288142507,0.2386861781357215,0.9449760885758443,0.0446436570466117,0.09736043463463451,0.04746436437571801
23300,0.2468652730152062,0.18840839632253228,1.0981321462413536,0.03434768412609187,0.08997514025759415,0.032447852664013566
23400,0.3874291353815109,0.27436599578246734,1.1405925746089183,0.016662392606899234,0.0542949432813307,0.026988749555476046
23500,0.5252609397377366,0.5220317539008168,0.8952818467688353,0.018411851413773207,0.05617466053725783,0.07296737634102143
23600,0.23401409942450688,0.5225726234895242,1.0755737977743571,0.07689788145309066,0.061245828399506014,0.06714138772263532
23700,0.35596462673058815,0.20717092327701478,1.0524161758817094,0.09916781197880076,0.018809846797722986,0.021762099095842515
23800,0.2769073301372811,0.44520352489408677,1.2615115185948365,0.06891891324611403,0.025464518578382313,0.005116800263843569
23900,0.2285935924305917,0.4416048408386335,0.8963415022602624,0.02142949644998217,0.016305454145782838,0.05893100544710104
24000,0.4123263237568695,0.4168858477341155,0.9203193574154154,0.08629665848635144,0.03539121599744839,0.029056138869525773
24100,0.24166427062256543,0.29083961120980995,1.1428210878433844,0.0578582372209922,0.050454078109329004,0.07108870036396282
24200,0.2401336165036794,0.36490359870600086,0.8481832308787904,0.09699701198386006,0.03507836523437478,0.07563600028933998
24300,0.4512144556824531,0.3615352600841173,1.2336182226913852,0.032475414774711234,0.07173349438809906,0.05602132333055579
24400,0.1444723939265347,0.28074320734179403,0.9847256187227768,0.06813704590031165,0.0016594215204215335,0.07630353984293183
24500,0.2778519872323607,0.19338023242498223,1.275200108554229,0.037890894960322566,0.08992483576070252,0.05090875637044068
24600,0.43472519831172574,0.2520097082027868,0.9869355345735835,0.039664964445615715,0.0018095527756852193,0.029688902331232694
24700,0.5977946408564617,0.27358242931511245,0.829327435607681,0.014516416438426272,0.029428528863200576,0.0827777798911641
24800,0.22897666029271338,0.18030171017395272,1.0123053316249324,0.05152464064721435,0.06779593014331568,0.07903651026204672
24900,0.4457564444099653,0.1563288121666969,1.0112801449636373,0.09387095441905645,0.08111138112338967,0.06980446186479368
25000,3.519080964325969,2.478736263660223,2.966333684997693,0.09732025978709717,0.03478718142753291,0.0510267537884352
25100,0.4489390955375384,0.40043039840137173,1.1392975046218994,0.06297512483397383,0.031844570201179194,0.041707061471437816
25200,0.33586241572008835,0.28896778060569983,0.9424692153717975,0.05263379656350257,0.06502289334271937,0.08970271521617727
25300,0.22718648466830624,0.41318146651354426,0.8277444617672618,0.061734064238788855,0.07489904348014652,0.030759798844243836
25400,0.5975781364540348,0.39801103633111623,1.2772584731460042,0.0748292267639563,0.01877542055939059,0.034665869394313965
25500,0.14493149724193663,0.36200623377442454,0.8054638372950975,0.09113592262505893,0.004587463528603653,0.08377542421211871
25600,0.5826311817486796,0.41342062439305916,1.174877915477272,0.028361954747832374,0.058921667910293664,0.019592568559685275
25700,0.49598920486932474,0.18524323988786864,0.974743114395856,0.012285250028521611,0.05918587322314764,0.06634931687130323
25800,0.2503862026033058,0.2757264460899933,1.0865468620751784,0.05761136098357961,0.048781443901279246,0.02495437340155933
25900,0.1571295423148387,0.25660080494777804,0.9110114099018642,0.0526302889158531,0.02635745905056205,0.009830049747030545
26000,0.5439778647742286,0.12266964408478889,1.1817483106861801,0.0240846974052525,0.07023768180034111,0.08211126409641678
26100,0.3103530160569097,0.19428496271118964,1.0018626894544465,0.07102775793693004,0.012244980090640789,0.08916082338810766
26200,0.2959013871784212,0.5827021948214162,0.9359108648499144,0.04273566276942812,0.06959260034135116,0.019880036218703257
26300,0.16885661334691457,0.48958245942362344,0.923532264528464,0.08472104672923791,0.08881999430716568,0.022304319952718556
26400,0.3532911221757956,0.40836556897839815,1.2406013081394212,0.020452900497107643,0.006588124418236674,0.0771034602137589
26500,0.4993320381549532,0.21547558380254458,1.0672660077505158,0.08252288329125891,0.01671436831062442,0.014077652454084866
26600,0.4127633612745263,0.5606484861138878,0.9200574387480094,0.0947037168206029,0.08478716100540021,0.010601103041651695
26700,0.5221479330703752,0.41271487702862486,0.9702138819511521,0.019055776416252924,0.003817766517263477,0.07840757057464512
26800,0.5357357609285507,0.15121397797877947,1.0380605627185364,0.050089072583426646,0.018333249140373632,0.01409102769687065
26900,0.45155308018129237,0.1128594898338798,1.0489636983198656,0.08398511097674755,0.08947391390697679,0.013900735223072192
27000,0.11498267914922825,0.17211402782570354,0.8116558484794095,0.00022614415062772731,0.054092751925078265,0.012751556742487636
27100,0.5449427992863392,0.5123958164383432,1.0408577513412907,0.014404375353541178,0.09932578048261392,0.050046959723825085
27200,0.12290626115406736,0.15224312744054472,0.8707414413389566,0.07761299839228408,0.09572971558466097,0.019248953472854935
27300,0.40251608559939767,0.4351474645700807,1.0865525317789217,0.08925802044075631,0.06936843431095703,0.013521648809551635
27400,0.45400671206261733,0.18747689628061578,0.9479275770829927,0.04220402173527417,0.00571215613382966,0.07184241540314802
27500,0.5852855608251304,0.4304447361062337,0.9184741434119771,0.03151483644266286,0.059349141458556035,0.0643086561670314
27600,0.20617487691282613,0.3396691518164927,1.0682677191893237,0.05061061683331611,0.025562812139824823,0.07821057526951242
27700,0.3813695407176858,0.1652170634766925,0.8123605920568622,0.0732868345112862,0.04883170398559598,0.058971592380876875
27800,0.2365100797324455,0.4472483831966917,1.0909712283775657,0.05947627691921812,0.004467573300386729,0.044396255662363764
27900,0.5373107057466513,0.13578579656929954,0.9993369331962587,0.06200272603707418,0.08723150178391034,0.02959493799865555
28000,0.5773656770758844,0.214139492242736,1.1090850243379016,0.055395118746839306,0.018568359757694542,0.06645659797945552
28100,0.4499284750074266,0.36826832994359293,1.1341064342370126,0.009856025124723757,0.06501859013889363,0.09542433019852267
28200,0.5965630886930235,0.3229564740541484,1.2581933098833025,0.05421759201345316,0.053412575530292994,0.014225925844476961
28300,0.21378930325043347,0.22911471343255493,0.8340324378664454,0.04551121947623609,0.06885920726306882,0.028154258013901447
28400,0.11589258783118192,0.4870558343646847,0.9980694745595189,0.08161278658097948,0.05053233263434747,0.04887882665957836
28500,0.1556555162470297,0.3207425648662563,1.2519431416611178,0.012127391465707626,0.0603845057021071,0.07788293066899468
28600,0.4129554737033464,0.3403140229504815,1.0729608680257803,0.08427593946720512,0.09364181313681988,0.059320618732917045
28700,0.5909621589784823,0.42359515182396745,1.0712179216033033,0.048982988122144425,0.0057896784343315355,0.022996566285541278
28800,0.5581972922998645,0.48266621740656723,1.057872013669635,0.008347335802172118,0.061038025145745134,0.07041895796221931
28900,0.11001285835051353,0.5947950695574956,1.0656212921909722,0.0065415062374604704,0.06139929241763497,0.06901661231235677
29000,0.519593400420922,0.3547209342665345,1.1014024517009664,0.0781980759320905,0.08248932300113238,0.07354189163710331
29100,0.5482854073193384,0.1990196163131179,1.165671870786353,0.003935076749415767,0.028041254778839175,0.06856343285174153
29200,0.417975177989529,0.5595527696916471,0.8279114356286494,0.09783098676185156,0.01753646408114892,0.06115830551895834
29300,0.19978087707156214,0.23250162269813637,0.9674381131982724,0.019494168070447338,0.09838033911238739,0.043454439479754504
29400,0.31230925709395196,0.13007481690060327,0.8868339886032766,0.09521260254527886,0.037311648918323795,0.058504292906367564
29500,0.43979745938120773,0.23369926139050404,0.8595558462868698,0.06513075581025927,0.08285926120215145,0.07249056938958116
29600,0.204839448631812,0.40350389955066557,1.1336220010429725,0.03486287684389923,0.07639926498318367,0.033188296399751176
29700,0.14453343657678594,0.13701970251603388,0.8280630708478414,0.026511719419505187,0.02645175421955287,0.03848841578087556
29800,0.5467406586471543,0.5531734660244351,0.9567229015161652,0.059838193514683315,0.06578218079713553,0.034487529244009364
29900,0.3148043162495734,0.5359565109029681,1.0067408170681589,0.03016785432964303,0.08395221748607606,0.045721173586044356
30000,0.5636377666432106,0.17108710972414928,1.2234729862067977,0.0526331449530291,0.07579542458431615,0.07866452418982722
30100,0.515525827820494,0.43479368573448807,0.9930776923851234,0.03684358791770227,0.028512508195319974,0.08985902986664145
30200,0.19139541072763336,0.3952876488324695,1.0931256392062734,0.046507693872055,0.048654831307631465,0.03306602081872025
30300,0.5045875256716367,0.3204399627800849,1.2111877774244764,0.08947390288271727,0.07136236971057323,0.02375624494286779
30400,0.22648482008552637,0.35568481195433954,1.294860982193087,0.058603263026668295,0.04764837351116006,0.08603650498429413
30500,0.2783158905634967,0.5533793946716163,1.2243133759017115,0.056595356127619345,0.003768815627565947,0.08174077207157943
30600,0.18664006317215145,0.5885638817469916,1.2263118122412047,0.019845370739730996,0.026011775854896058,0.013946599757776956
30700,0.47983024778705974,0.4454004798253668,1.0665300109754918,0.04086058813054392,0.022451936792635175,0.009086540942667698
30800,0.47936971092612957,0.44964441911037323,0.8099043592120785,0.016992832573326757,0.07879066188096234,0.04129647020561844
30900,0.26396312425480906,0.13936596013534705,1.2176927185918658,0.029352119619537088,0.08928974472512669,0.0963935327877607
31000,0.15698310326154555,0.575513023729668,1.2608737369599219,0.08332581141002149,0.00414563733148301,0.07534936164372844
31100,0.4975085709533906,0.5473215172774022,0.9695911288207579,0.015331820040477362,0.05058209412954491,0.07184349604175705
31200,0.26563402046740836,0.23811152885248957,0.8470956982613633,0.0757115143970217,0.06602912937919912,0.08401786748558834
31300,0.3919020756759769,0.45583113239277817,0.9262919381100172,0.06847566864774532,0.013851932799405487,0.013087842330131516
31400,0.43028621503821596,0.5145083942677243,0.9857074232264611,0.0905915831996422,0.007520808506682197,0.06402341986712337
31500,0.32715770617486406,0.2589902018121306,1.2459862164071953,0.09502125511720058,0.05162283324469291,0.04915213135520702
31600,0.15247401311429368,0.5390149981357727,1.1136192978161754,0.09919676809078988,0.09822153621075902,0.02341219650813269
31700,0.44907250443798186,0.31263999271912024,0.9766905646755046,0.022940227146743743,0.028836033087100556,0.019844819167221295
31800,0.39624353866396644,0.14765429014094947,1.0289010403426313,0.028423558995515488,0.08397485735384555,0.07229579883878552
31900,0.4784204853964391,0.16955137889572156,1.0264995399440693,0.015382535956795307,0.06503360139879123,0.04380570417347032
32000,0.29729806290438465,0.46934095194020187,1.0466646694720374,0.0035097613908187,0.07897812452498687,0.04335672604007097
32100,0.18099522535523274,0.22145288995570397,1.0090621631749264,0.020872545288985436,0.029649209648708753,0.008067746130072462
32200,0.3854415866441735,0.5756500969830949,0.9174206183261338,0.05962808750703541,0.02957947867107055,0.038071071853759623
32300,0.23114435854250362,0.21957326020262655,1.265844775861516,0.021713634924748995,0.03025705099662771,0.057238674909811195
32400,0.548443818868976,0.36794799685397706,1.185395808603911,0.08691727270912072,0.07159459896046054,0.021613493823097588
32500,0.27046369332315556,0.22125349461283186,1.0380783529369886,0.0318652156377,0.09547793519218589,0.0818180482770964
32600,0.18197962753091187,0.3907945084187211,1.1765165514136497,0.06297207432315188,0.0237559305496615,0.07424410198445319
32700,0.13377667420313508,0.11026153517658674,0.949336432149749,0.08015705713195621,0.05452686567117382,0.011822952069296046
32800,0.1255779542734952,0.12319580787815135,1.0375324389842162,0.02742753807862358,0.001849146950131342,0.0011676673147412943
32900,0.4942734376307186,0.14387374529033123,1.094584346544025,0.05409143103098299,0.06294183859012968,0.006425728544139531
33000,0.2948827192182295,0.1917111156324436,1.26421872745171,0.006606844564742021,0.021585376711741003,0.012727842923847432
33100,0.5215905199456,0.42908479696252144,1.0473663608430122,0.05204827063284895,0.08373153770798486,0.02938604243716745
33200,0.4426198095450091,0.337294809094407,0.9290533859883928,0.050338489497851,0.08451463921340482,0.0512038771551692
33300,0.45109880268453506,0.5641950970238025,0.8269186916857181,0.034279707647506964,0.08630920812834336,0.06702295988954224
33400,0.3902061647245776,0.11492692777160465,1.0526587534105243,0.09261678415689249,0.009836962757839053,0.08141114724988667
33500,0.3291170029143864,0.26807723645010606,0.9048111305144975,0.08878318629667924,0.05513523238726245,0.06475401422373162
33600,0.3255752713256589,0.561740578177411,0.9798138942781812,0.02052036736910955,0.07692683477311689,0.09455124617663481
33700,0.2787639519772154,0.5439062120384809,1.0686957791143592,0.09794980240866581,0.005600861357248688,0.03683164626104381
33800,0.34314517633832387,0.17581584313330187,0.8548475709269907,0.06261311487476331,0.06384792215975511,0.004644844647807567
33900,0.39311328719463534,0.27234988547472616,0.9004926483351257,0.04833960671176928,0.059270682372510944,0.007847491152834262
34000,0.14183810670650385,0.23029045495230185,0.9263076051594161,0.09986893389695002,0.08653933979470414,0.0065399396132011295
34100,0.3847531173025822,0.3076698147769471,0.8737256818141159,0.01780695568198194,0.0369231997152708,0.09374747678100026
34200,0.3887851747410187,0.3257674455844175,1.0280249511526343,0.01189314628478263,0.09814744672457197,0.06404466574239401
34300,0.4387786087786907,0.31707934739650157,0.9487843155786337,0.091931517588562,0.016109468246823678,0.04386640399865153
34400,0.4041894642002829,0.435815783458533,1.1830907331109175,0.0341685761442077,0.07461196194885598,0.05185527756083343
34500,0.2195893753616935,0.1778610817568095,1.241028529785531,0.004280752681525446,0.04529650491152442,0.0953556652974884
34600,0.4189374492318986,0.4667497083360981,1.1918017488806365,0.09741024887095134,0.09256183282874318,0.008502409144114376
34700,0.2389518461871211,0.497335672662358,1.003485080607615,0.07939138735118256,0.08588171309800328,0.07718168720804512
34800,0.3030680465898178,0.11274338682654392,1.0500324086630444,0.06228433949618853,0.05584278246698815,0.02108325898037322
34900,0.1818240336941858,0.20038337514869978,1.2148665237808356,0.047687544045355926,0.03960130066395308,0.09747321353810309
35000,3.369534735110028,2.3012709129552222,3.0505411595439815,0.029107807051377634,0.08127868711010282,0.08834998080857193
35100,0.3855002910019555,0.2653672722310728,1.2485299060133257,0.031587788008885245,0.003402218408720004,0.04710409200119811
35200,0.4600252783231654,0.12272254018017839,1.1569379787260723,0.0541234563798885,0.004832111840659093,0.05973595203883181
35300,0.4986577618207506,0.557942335864056,0.8217419034015181,0.052649809911082784,0.06065406228064443,0.06780710147899655
35400,0.5305450622198786,0.5784131942633409,1.2569086022269242,0.061991435071808265,0.06327048452352745,0.06747656592400283
35500,0.4238496508750391,0.5843960550894133,1.0565455561455108,0.07224609330948253,0.049424087765484626,0.058441687469322684
35600,0.13002672356115105,0.5656813135362311,0.8651584566103452,0.08833857842894098,0.066477562041224,0.0971617951217275
35700,0.2272142578030741,0.23278060868088937,1.1935025455203732,0.06727844292268502,0.08694815543527291,0.02995139653866835
35800,0.11680278671751579,0.13122918021028238,0.8695092989255335,0.06525215720969968,0.04024921246503288,0.07768866217151871
35900,0.5123407241085756,0.5851994979470928,1.0388914555585715,0.0894790920596522,0.09187230785384964,0.08550367036448264
36000,0.12134800465038106,0.15129005155938455,0.9116018378403301,0.005222833883992262,0.052656403869761385,0.03986551380475455
36100,0.2472905547409244,0.36014800361177046,1.260081878182765,0.0007882024618685257,0.08398251343004043,0.03542300432889015
36200,0.2983158817368736,0.12297933591208185,0.9317363073787204,0.09815481897971735,0.005444857639160705,0.0009446623387399767
36300,0.5042925583338307,0.47672468562584136,0.8621174200945889,0.06848872111334607,0.07733817993365649,0.09912571949296436
36400,0.4801540106501242,0.22556285738722306,1.2616464753203593,0.04225285610854516,0.0892694174728183,0.017586354800422543
36500,0.22516141235413742,0.38007526139967285,1.0383515196667361,0.014995808641883313,0.026097176634155107,0.031441254938217936
36600,0.5436133507846022,0.3324543525114432,0.8538843798655716,0.005019041911726341,0.0849390114762345,0.08256258561514962
36700,0.5034156185308997,0.28567527405875115,1.2397486207447224,0.06352012204985831,0.025656750245266393,0.030949397203770004
36800,0.10474392996018475,0.45354618106961964,1.1487638330311083,0.049786114629925465,0.09026489989546954,0.01006513494471485
36900,0.10358653380584357,0.1982824259692245,1.0892438753585536,0.08567805774696854,0.07634385841389525,0.025068066317641347
37000,0.4542408852579247,0.3455750499653675,1.1402731909000763,0.03961744604608053,0.022924774897525115,0.05402910758988181
37100,0.42770684520096847,0.2838959786823124,0.9458307454091177,0.029626832654026172,0.03908205484522707,0.05597119465765696
37200,0.4245611013420162,0.5082622429959264,1.1491651765247801,0.07038119233120947,0.025037388237818137,0.02655714305485947
37300,0.11132071784305178,0.576456824520154,1.0510485051985459,0.09085634307029822,0.03448546495621004,0.03560314614854596
37400,0.21986912848198845,0.5627686627061328,1.07194296493711,0.07784894281636123,0.03983019261750344,0.006552671948682443
37500,0.528183257455034,0.20469612383915795,0.8344719388705599,0.059060104191890665,0.09839994110783168,0.015673479073538565
37600,0.5050851623472821,0.5680770242149689,0.9168372093986304,0.06357440280167938,0.0908174073838849,0.04303748571110886
37700,0.17289281211317917,0.36511325728760824,0.8285988899162822,0.028258653683559155,0.02878584490385714,0.07277478347485454
37800,0.5841796351456185,0.43585242473436636,1.292387320135745,0.007270368328365806,0.060047694164437594,0.05586148522927507
37900,0.4364832243381078,0.3867012476781301,1.0622960762103808,0.07349167957974678,0.0235453128104153,0.0646191648562882
38000,0.2835780259958782,0.3795931735375412,1.1223220450835125,0.006433833978509218,0.015425871991392427,0.007729548615191529
38100,0.365755771857427,0.33309095306220404,1.2637387837428862,0.0473805653814297,0.07995953195450738,0.007689221299161464
38200,0.19263311669583297,0.3923485050186578,0.9603545721183169,0.09525925959015605,0.08809110115948728,0.007822510376221049
38300,0.12962731832436927,0.48008214708249364,1.067241236693532,0.027729843235943852,0.07300426163589967,0.07787285576894372
38400,0.5700147917771097,0.4228014483415712,1.082020048447985,0.05091088229814324,0.09361830223491244,0.040027659621708116
38500,0.30513336137835323,0.5943651216764055,0.9127590717967395,0.06212173065116488,0.04025603215652403,0.01742243921607536
38600,0.2535803850840107,0.1513157805066618,1.1770100664725214,0.04177253515445283,0.04926455897116272,0.009401956360194553
38700,0.10270438053817757,0.4062886090061165,0.9159847861044584,0.0801838356995257,0.09796301976981077,0.06080267320057531
38800,0.27446892783215027,0.4313898314659391,0.8140875191113066,0.06362256301328044,0.05499574690310506,0.006859670598036594
38900,0.55277912680006,0.15738712272764002,0.898811822730397,0.08036186587252103,0.025251703144033057,0.01972373771370325
39000,0.5052102312500569,0.4615034786097274,0.9550575605414984,0.057315668161586335,0.025126518655419896,0.09209908337676898
39100,0.15179069701127593,0.3301981049756286,1.056748938967802,0.06763787509990031,0.03222372597516881,0.09191074156812247
39200,0.4003877276205663,0.40328577291434076,1.249709787124973,0.03692664917581014,0.09936833692431324,0.04243157391022411
39300,0.24720240877006996,0.25090490425357226,0.9747789300415435,0.01035766431845865,0.04024170377520286,0.04255767702598961
39400,0.46524350677474946,0.17226094394653382,1.2290878597837538,0.08091506063374186,0.05692206969595503,0.020209198287005473
39500,0.5804746346528171,0.3838743580776154,1.217249568950166,0.044797736966074975,0.02089961021642306,0.06438268955737733
39600,0.21649858078576575,0.32094669136688914,1.1315774863274246,0.09182034947783112,0.08602165020076108,0.04721283734684012
39700,0.3671304977953864,0.46410228360339056,1.0738793672631095,0.0332801380370281,0.007874101815703994,0.029376013986205898
39800,0.27179711332176626,0.5613165344286457,1.2228676510006005,0.031754187459721285,0.06635396120530984,0.0839084502278194
39900,0.1678645821599243,0.520057585750999,1.2873249217248695,0.06847258433583801,0.05866610596545019,0.0008188238057635134
40000,0.3717371500655411,0.5239857709793762,1.0612084649731373,0.0380574015310429,0.08490162103670042,0.01708341998106515
40100,0.4690913422420122,0.4436195675351541,0.9922572462723038,0.0038286320392352025,0.027246190138019644,0.04476038398772267
40200,0.23342508783549784,0.4586681661479557,1.0933528889406294,0.006624947369417634,0.017449188389341685,0.01972818512885545
40300,0.21973655575996812,0.17629101524108617,1.01258419006602,0.03336633169862061,0.0717789666848047,0.021239654592749714
40400,0.5079210499477917,0.580091950603136,1.0852294894131869,0.08704896214382463,0.05498930406443795,0.02738908923901209
40500,0.2504365898757842,0.3191947453470616,1.003430198333547,0.05766892798088244,0.04101938332372208,0.06391442187690778
40600,0.38886352950098213,0.5878505200625056,1.2379364291992039,0.013923470977635933,0.04352235562821254,0.08894220263479363
40700,0.21083763845508116,0.23686478721289309,1.228576107918077,0.08361772317936925,0.0347835476752021,0.016071767954754426
40800,0.10269949185780267,0.10826359909688474,0.9294415764781946,0.050798643955199285,0.08090351622314496,0.0960647034850433
40900,0.22325512070364753,0.37154194097375004,1.295483453860309,0.001227056970048157,0.02719542181043785,0.09661872624536866
41000,0.15356862253039513,0.1045092557079608,1.2575742368643812,0.09229836389491859,0.03769902907718123,0.029812638039077178
41100,0.26072676225462177,0.5012971768046824,1.2587463751225394,0.050452168324150615,0.030326598825573703,0.07416030633353053
41200,0.27825576150165443,0.4988934099405534,1.0192106863516979,0.04904366655329188,0.04738749439442879,0.09154079201199691
41300,0.5174779040723267,0.15048355241408726,0.9767622290819923,0.08823248704254724,0.06211580436457303,0.0708449289232205
41400,0.41127409945964755,0.4280167124386288,0.8139918235251041,0.06964246829248784,0.01169005139180872,0.05441553912870639
41500,0.1733530741747029,0.4466423034888142,1.1618586989734507,0.019747189947100143,0.06043392006509434,0.004291346441095967
41600,0.3987969632542565,0.5308708535528124,1.2317494436788965,0.07438652894892211,0.012623790101689347,0.07146496604223444
41700,0.1655876798880306,0.28014339631298923,0.9587250398767022,0.010473896741874811,0.050483023128504445,0.030972258498802054
41800,0.18400063673053488,0.4172528329776234,0.8413011163982669,0.053768852511496594,0.08908897877628336,0.07034173871988712
41900,0.17921211295316544,0.3276479495526954,0.8207127990783039,0.07860287361194163,0.004989557013704272,0.06631331568786163
42000,0.19880355280922865,0.18924760819730221,1.0226737413441915,0.09626905760219528,0.08904104466389137,0.018289485653762105
42100,0.5815099567465287,0.17325893325306804,0.8471122507250666,0.08555977064694406,0.08069211403063992,0.06218843076448445
42200,0.549309387630515,0.24483564206381778,0.9782771251563749,0.0890451027081297,0.05025945865386566,0.024236286274578613
42300,0.29010602694892573,0.12447499223160882,1.15065305864491,0.0270297263989409,0.0014633338571267808,0.05089293037969203
42400,0.3510444396012441,0.26209890063860963,0.9614289635872504,0.058605538418496694,0.06556643787220849,0.028181697389396066
42500,0.1547784946447431,0.3145051314743641,0.8063964128337889,0.01867573273739447,0.029299340860817837,0.07914813863812475
42600,0.404158940966308,0.25448793665445824,0.8956093267899536,0.019368740737761483,0.022803988415981413,0.035896818945978695
42700,0.48119550554238577,0.20620218750534228,1.2287202894384122,0.010191300675040028,0.00023700117900997688,0.09637508874917122
42800,0.194328331941609,0.10085489792394994,0.8537300343469312,0.05412952342848311,0.09631176613123345,0.052286872554055654
42900,0.254941332751939,0.302464674930055,1.1963488202874022,0.0637833844094948,0.040413936984372845,0.008062783814708763
43000,0.22616896202980577,0.19273552926336204,1.0975694230543547,0.05472437387760694,0.0028680258828850725,0.032678661203825225
43100,0.1577163976759671,0.19364690568284207,0.8763479370184752,0.0682409037752718,0.08951247781793847,0.022044352016154026
43200,0.2416528375020893,0.3010668267110447,0.9150219873786205,0.08407301065743404,0.03722547262914651,0.06910148699227446
43300,0.3417277528761412,0.357160511268792,0.879273022821375,0.030041067366061183,0.05415090863741426,0.07105890405590186
43400,0.5809640192289112,0.2592597233776368,1.2172348593198348,0.09563937765548881,0.03552127681559525,0.004661255547766374
43500,0.47295259722810534,0.31411454365687297,1.0078414045320492,0.023418542100640084,0.04566346629895743,0.09664583553354848
43600,0.21505425595568248,0.5757539152914715,0.9018457101214206,0.07260371496702044,0.0030295452192923514,0.05317272913235682
43700,0.3291227430080226,0.48813196622127464,1.0543820540515494,0.002215435509193098,0.012330647676257835,0.015788232965336713
43800,0.3935509523837383,0.16677914464543334,1.1321128281413748,0.043384148870904596,0.09725472366805968,0.09800705670061276
43900,0.3626876737836947,0.5433143604106182,1.013287940639554,0.05985395852597754,0.014795956187734672,0.05679636831332542
44000,0.21261097389828384,0.2608014947786136,1.1673726773607354,0.08142295337283248,0.008383214960297458,0.0335745536131186
44100,0.22086803977483357,0.23704959911805604,1.2505866979410811,0.012942542419982273,0.028477287729239187,0.0001164815968959676
44200,0.5958975071618152,0.21816223625161088,1.2847123263515248,0.08587685517309566,0.016323358227486175,0.06264551438633123
44300,0.1786480532168909,0.5178451217225455,1.038109315325203,0.016370875581465272,0.02127989739951948,0.0609665817918047
44400,0.36839462120892363,0.5297287436168537,1.2302124299227537,0.08798504430500427,0.032803445981312095,0.043244822943176386
44500,0.16890528371377198,0.5969872029512168,0.8001367005642689,0.06454227181856807,0.05308712854147133,0.018194409868951267
44600,0.5812119094406665,0.3194616959158699,0.9149635478421002,0.0710277967335785,0.020051618642757008,0.07841902483649422
44700,0.5644915839678053,0.3901598916562935,0.9567016348326127,0.027655645099149674,0.005273364594634633,0.06192529439282212
44800,0.5508512267123206,0.24136401110110164,1.1195713970184453,0.0027676645131962554,0.061660171739616465,0.003110487165944065
44900,0.3557907265667577,0.3144923563214854,1.2980039141141475,0.09139297388039282,0.0455822947106616,0.03341658107750033
45000,3.5939435824967507,2.3601728056852935,3.2999068777455323,0.01450396218770419,0.06432896390195784,0.07975825409673132
45100,0.33099575608449094,0.40121980397192647,0.9225472465155176,0.041087472898626756,0.07185833219805854,0.09897608565684753
45200,0.10041178552053656,0.5204815737538695,1.1371508185712773,0.027389833119718224,0.09599931547688692,0.06921930189724228
45300,0.561153380862132,0.2368996331778481,0.9622751322947242,0.06386212910165931,0.0150290689490016,0.08918026268441176
45400,0.46792092590836276,0.2883603417623041,1.2183653207477316,0.08313554991701311,0.030223048467035874,0.015844171588434108
45500,0.35791886482665647,0.42540875981236215,1.1737457225821615,0.04709107432437727,0.09071933934912751,0.0714954604204721
45600,0.4666931489138939,0.3028355295809091,1.0363842653713613,0.02043551129978112,0.06340564592983879,0.006819971969625915
45700,0.23392655023871914,0.29688380966427785,0.9389690722301176,0.09943670495431571,0.03611400888635814,0.006973896459970275
45800,0.33470470751502357,0.4571384906898923,0.9296057918300822,0.01357837867018278,0.005426987317684662,0.09112056500396387
45900,0.32181366743800566,0.3273760624801628,1.291904385158485,0.006576422862896114,0.06373258457410556,0.010586812009885017
46000,0.13546149154127793,0.553840565414428,0.9291656537043003,0.05523258041218293,0.000978103692402388,0.09191388899116765
46100,0.21046259237642065,0.2575900508185428,0.9468873934807149,0.06332465867678481,0.03720160923701512,0.07179818997150099
46200,0.39943699614937744,0.28708946544710057,1.2452879165226178,0.06533420724530667,0.03343882737986681,0.05391397693893976
46300,0.27295517873175945,0.3993506526427475,0.9444900375459864,0.027792853991398525,0.08424749640205748,0.030444511169144872
46400,0.14158737830527982,0.4954728092032391,1.0008252847350072,0.08869636712228225,0.016881742087616714,0.07985874232086411
46500,0.16355414870853832,0.5195391462397885,1.043334497188133,0.023105433159261213,0.0181715703442052,0.045457715431230394
46600,0.18383927118094098,0.18529449729792127,0.9324524623226293,0.01013810479229923,0.07477019681103138,0.06887134262236438
46700,0.4245474698289754,0.44587341938824454,0.9204194440598976,0.021332494896444943,0.05996473054227293,0.08802630025224013
46800,0.48040178340691286,0.10576667379070417,0.9780485005359218,0.0009323089703616284,0.07441428152869244,0.04450875297136391
46900,0.5502626310693741,0.11659799454029826,1.0678505241154608,0.09885809485985586,0.02862167169362433,0.0014789125135773907
47000,0.48354548548137055,0.5044046605126308,1.044193156678085,0.011387139720828344,0.08026929893643135,0.03862059124272012
47100,0.35326312028712525,0.14214325670651148,1.278535887126655,0.04361978991486725,0.0639366164550121,0.0018107027600894777
47200,0.14821005850822863,0.5313400888573556,0.8304773361269076,0.0799683686209442,0.03959825259631264,0.06445450466803869
47300,0.1294889543883909,0.3717551459283148,0.9014269031622322,0.0662534371001623,0.004045958311673936,0.04410957022194222
47400,0.4715348596668082,0.3441715286609843,1.0736963608207786,0.0820182354199965,0.08632146605726482,0.07160941759812542
47500,0.43602338166294097,0.13979254564695634,1.232287584057764,0.005472455496818952,0.027131540913262933,0.02364357717249035
47600,0.5970945513386339,0.326383209059978,1.1786109341052806,0.08254041191881727,0.028273108419228955,0.04992249987634646
47700,0.33178644560021564,0.5889179266280722,1.1389730330141912,0.02825835255888679,0.06609606549974727,0.022979670163430554
47800,0.2148899838440981,0.14322398200223943,0.9882075954350866,0.004714280093386903,0.030672013225230978,0.028525254662611566
47900,0.14219807728524245,0.24875960983403891,1.164676249727306,0.0581601460067368,0.04476192189267854,0.06617334033337308
48000,0.5546880012450065,0.17331483713047266,1.2060900461399777,0.019006682450558022,0.07283189818167478,0.04256710971115688
48100,0.3990065949595949,0.3586737919447337,1.2663795836897176,0.05111743941633051,0.020876038968554857,0.0010852586912441509
48200,0.34948490819283295,0.3359980848038404,1.0495456574101167,0.03643551293929238,0.030800221008842478,0.005826524145775492
48300,0.3017063721477351,0.3988583724913466,0.8379157583311767,0.02758060649471419,0.01551379806132055,0.03719807963378006
48400,0.4028361757465593,0.12425793840467955,1.1008141971690266,0.02096267496963017,0.05242671470483029,0.06658635399527789
48500,0.5851925723167408,0.2757486019707982,1.0963852840231607,0.07839970222524448,0.09112664671061747,0.030696442261366988
48600,0.16785931263532913,0.5483999999633294,0.834531512796723,0.0795567667645928,0.04455849070762324,0.06418891021771209
48700,0.3775046256737594,0.310649619114856,0.9828549662838306,0.05961485674182241,0.01960010459284898,0.0937558208732294
48800,0.5982303113577843,0.2596765474325544,0.8649960542736637,0.05652885616666562,0.062435803814698466,0.08457555784089987
48900,0.4094362227934315,0.3528942687749025,0.860060623583071,0.06368259960382727,0.039330231215391254,0.05872196674752807
49000,0.39379919440926436,0.13150724200313438,1.1533811024215086,0.09797332717633321,0.07970729891509132,0.015584871655770173
49100,0.2984333924155055,0.5488189486361623,0.9373739080473595,0.04048062485234508,0.08261772493245483,0.015980143845282038
49200,0.17900172836122422,0.11066995465295007,0.8864001761564471,0.0533990269692622,0.0816280280480426,0.08202713136285711
49300,0.1882375237338965,0.3420157008546204,1.0391082487115666,0.04360215798054723,0.0024244997677677297,0.09832095908901307
49400,0.23745644041324468,0.5041692651442732,1.0592214396064579,0.08382826344575867,0.024488189772489757,0.04443295551670288
49500,0.43989438716575535,0.15850830617220027,0.8660219735874224,0.06910408781934228,0.09880855587794453,0.01088905094011885
49600,0.1882465593698537,0.4462684605142676,1.1652058411867294,0.02046537076696943,0.02875222634500363,0.018311004775765728
49700,0.47248843286404363,0.3699725939939109,1.1246631461132541,0.09185055168523887,0.0579351584246245,0.07084112067839199
49800,0.34494462143602944,0.15364301783234394,1.2418213714357167,0.08622379623214886,0.09157815371277948,0.023803951913862
49900,0.2733368825291099,0.4545425390982306,1.0632967690827941,0.05800117634864929,0.02984567433978861,0.06391858791720559
50000,0.3379273473487251,0.5889678132710248,1.1464118952114482,0.056063251343552806,0.07890058600838583,0.011089830556330206
50100,0.5562232961763685,0.34943496299419274,0.9621788452443477,0.04477700924377135,0.016494185794631532,0.07551229342975266
50200,0.1268760128599767,0.14942911139912476,1.1386825650857482,0.08722958103058667,0.0978021706062403,0.04603803127182835
50300,0.19404424612328416,0.19236523009979048,1.2601678030000838,0.015218312706006765,0.04686325858963952,0.02413542734239499
50400,0.5191676022118553,0.4613871842351237,0.8791721596007156,0.039008467868137026,0.016424979221534453,0.07871810097798926
50500,0.23657218990666493,0.47995201787000186,1.2094227637217303,0.0981127384651978,0.03662088144169828,0.09912074419924077
50600,0.3202343784820231,0.5221444912862861,1.2687282374312832,0.08793993428688439,0.03979951538223001,0.0059789706600901
50700,0.49821482213428125,0.1950234185797272,1.1051251667764301,0.04769850185565144,0.0743174050718147,0.08755814159889018
50800,0.10664615994593638,0.5494513348031231,1.0885670436873756,0.016050891226204688,0.0807719327007541,0.07788654620723896
50900,0.29734407867848667,0.5227267960071291,1.140451802831169,0.07103352122751265,0.05686939183648296,0.06292745194465439
51000,0.4129462223614472,0.20292024352110552,0.9865794911171516,0.04024111558409346,0.02887008368183155,0.038768398454585976
51100,0.21675320220533748,0.3653962030785177,1.0157194171674222,0.09945843660957547,0.037783980728382176,0.022937046770215432
51200,0.12013282219762109,0.11959462355186126,1.1052461277461354,0.09720195943150726,0.07549063989256104,0.06320349003413295
51300,0.4590197804656272,0.16664424039256162,0.999162824538959,0.030518872112920203,0.0838485472472667,0.0440799803919555
51400,0.505424430090398,0.17572520939945033,1.062665299599443,0.0862616556332757,0.062328827707930995,0.0865156593846973
51500,0.14079555882263065,0.3660922274030435,1.0426716270753196,0.0023444473589132268,0.0026224057048162444,0.027295357702873935
51600,0.5454184289163017,0.11148577585718619,1.1401882673576587,0.028452095522669064,0.03336423573941496,0.008033464688606074
51700,0.2509782506174715,0.5458498741888616,1.1871918272496553,0.014087906004124707,0.023914374496275995,0.03575153595682523
51800,0.5988673002643736,0.22117049330032099,0.8150358892340196,0.0605782786577041,0.06599810019034927,0.004707154123700797
51900,0.21684693383136702,0.5631282250361035,1.1440585189601946,0.05774474250567399,0.01770153619744006,0.009005818137454435
52000,0.5974479991879389,0.49142307584401435,1.0411729468993254,0.03736631641114653,0.06496510337181736,0.0595222818022382
52100,0.5959438246636296,0.2798950111780093,1.282620382550046,0.0906475358301295,0.0016694448905812953,0.001923327865140423
52200,0.5505429319545577,0.4577919423636989,1.2992029524087858,0.045281123004563606,0.07557417408629245,0.0410558649211656
52300,0.5863282901591598,0.3529063476480422,0.8541315687443944,0.07423317269433964,0.07374768437736155,0.0478365761820205
52400,0.39113091472258465,0.49188568510398023,1.2017364849873513,0.05708597087009559,0.08794269467858394,0.006933526042061867
52500,0.22487690100894456,0.1829040862839881,0.9975329261415169,0.08108089605312546,0.05355746833795495,0.014433476962404124
52600,0.22994116160562147,0.328560582100478,1.1840706486788455,0.07820432575722644,0.004424433106722636,0.0897610328336491
52700,0.37516685463347743,0.1642196790456156,1.1177205084118027,0.0161879563093284,0.04782329240746978,0.0805120918816689
52800,0.19341500254043667,0.4819464497986906,0.8341416968470307,0.09963569851883779,0.06865207363587598,0.033835032183815804
52900,0.49005656088743366,0.47118248004576024,1.0756469094826335,0.08967088024116261,0.019019010675109162,0.04494025852817923
53000,0.34986096695676006,0.14837642368907109,1.2873695615432033,0.030852789048349497,0.03821028299522011,0.00261710221317143
53100,0.34334061701670504,0.32554142034678324,0.9239752302399011,0.04548399201492064,0.05002565331584792,0.03304105141488178
53200,0.3019021639098829,0.36311558194808025,0.9972240363535991,0.004546683198824108,0.005002176274810944,0.008082206489093592
53300,0.29965448873834133,0.16624171338948793,1.1200250439305015,0.012677343315238532,0.0660831733285533,0.0799060927711737
53400,0.38658187538899036,0.3608343281609011,0.8720401988442595,0.08898508213047873,0.037866768115110416,0.08169602858018514
53500,0.12808305421055463,0.36675940898243775,1.0241790002921047,0.00448684604814652,0.04571756828629964,0.07375285716719736
53600,0.3725458778638454,0.5618139957409881,0.8088847000378386,0.09410884756378446,0.053967750039087464,0.007460240800884044
53700,0.49784794890470807,0.13509053804090113,0.8358175145563447,0.09946442390687599,0.04982797177276698,0.0750931229123504
53800,0.481217563095544,0.2986807273737485,0.9041197791430213,0.07530798582312341,0.0672459114875638,0.015607259052458767
53900,0.14987499430287096,0.27036140104817596,1.2656855511626226,0.014494566116962171,0.02040654630438543,0.030357256581344572
54000,0.4145077650348177,0.21105121490282688,1.235734991121216,0.07046299148093012,0.019800167727944375,0.041507256359308964
54100,0.20096135177413957,0.38256511679616345,1.006545018060951,0.004662818065172658,0.00904934168950966,0.08254657523032757
54200,0.30941102026588363,0.5724218615855725,1.2942662429466276,0.05854662778231116,0.018762912958890477,0.04789339765452171
54300,0.26543695550112856,0.22647993100839522,1.2730957467581177,0.018272768665416484,0.0131999918957589,0.014745135697710965
54400,0.38563787283074413,0.19664629762016675,1.218728757753445,0.02691693033889784,0.03758772215331696,0.03267589237437037
54500,0.39572771789906436,0.11436350295820821,1.131142922813737,0.08702707005614013,0.092915096883229,0.03589500590865407
54600,0.5052647501369678,0.3590564144196374,1.1600189120709063,0.038695130387889354,0.031767053818072676,0.04942691741105907
54700,0.4909138467924026,0.28880855232921276,0.8764507632477685,0.060789214265843244,0.011839740846852232,0.09801198797676773
54800,0.37819127504078665,0.4071352824632445,1.2287834011546683,0.03659289406251973,0.03278300497539308,0.02550998307201099
54900,0.475960096922293,0.5596942438140882,1.1866218094190477,0.03710978284460407,0.00037864505709519494,0.009644741984285688
55000,0.13496452352268554,0.2815293969063335,1.1905843019007276,0.061820016543306745,0.029389623195895845,0.09049723159502858
55100,0.5808843855126599,0.5195617480611872,0.8293776359545706,0.0008490096918325363,0.07311848117397324,0.0421887108089537
55200,0.2828194471710702,0.18129322813356566,0.9389704540200954,0.06498362105752178,0.09315974733317553,0.03059749970596495
55300,0.10433504192497137,0.22266122717281675,1.2583323793466268,0.09076240495699962,0.015007359733934734,0.07984105950591316
55400,0.47747260725834273,0.3047551594496113,1.2462195511779366,0.05282524123724879,0.08825796719613695,0.07922617497367572
55500,0.36256311344465786,0.15606734119511748,0.9350606484403605,0.09393224581566274,0.05409342419228428,0.07247085557024113
55600,0.41492799686327086,0.503762219625667,0.8516886976172657,0.029415510659983414,0.006253975129199807,0.09540595484845857
55700,0.5950952190021805,0.30167125018155483,0.8757568492945427,0.06550769112762682,0.09713844061998894,0.05702834918952437
55800,0.12831734361977584,0.36658091245342606,1.1896135032871245,0.0878000425775734,0.039672649168907205,0.04665604526222233
55900,0.5088910217050778,0.4978778231090003,1.1627502479371032,0.018426760280116184,0.06739965973597427,0.05878874488907613
56000,0.47375664826135555,0.35411697971354017,0.819312602489682,0.048327389844699156,0.038304118179506665,0.07693382917978245
56100,0.11056627189610421,0.3423426784859107,0.8961984122646822,0.0931831229144416,0.03498862289825877,0.09811756815355246
56200,0.4818665740249296,0.47916635317704537,1.2438376283117298,0.0060982689440330145,0.09261279172100864,0.07360880082406114
56300,0.5541354093940534,0.40527504993634056,1.1385357462170353,0.030086734208866983,0.08206580329838527,0.043453531834046745
56400,0.49583874100909753,0.5511731579425205,1.244922979012561,0.0005101200882645873,0.08368054523625378,0.0868572661916905
56500,0.22920591704808227,0.10251429841728268,1.0366611817680338,0.053875834958686364,0.034728506357568134,0.004275812214967434
56600,0.5512666072979715,0.3579102863865019,1.19285313018549,0.038586753638300164,0.04853782400238502,0.08832679539379253
56700,0.4711832181600144,0.35138443254682383,1.0017312983843465,0.05313401349205518,0.013153530967656746,0.062080539547101625
56800,0.5518696083072157,0.3042566245623738,1.253228353665512,0.018867248806394524,0.016324044142498852,0.0563825062355901
56900,0.3086109467469268,0.14219604049117388,1.2200213623440412,0.04395640048696862,0.08454848129782408,0.08990160733724448
57000,0.3527578627340291,0.24012863101679208,1.0277060087873935,0.07632422817287109,0.0027972746806134044,0.07135985617092913
57100,0.5725365922922497,0.5315464801763246,1.267753094292691,0.03697961085280257,0.05255722983579789,0.016557689672481203
57200,0.3116341614194499,0.4215394569597064,0.9183549745848156,0.04368326974695126,0.020981489763817786,0.06510536749693537
57300,0.4981212888534936,0.4770181146814729,0.8162149796376497,0.04119514812782395,0.04117935075730405,0.03339277621243041
57400,0.193392087557704,0.4366778800022598,0.8550759579204363,0.07325991400024698,0.06485419537959808,0.07105764826419039
57500,0.19930992826055907,0.5184988121964224,0.9397404578204975,0.08824846327965241,0.005425685485132493,0.05699325529400058
57600,0.39194614498824965,0.4983323380151429,0.8185445716714528,0.054197001605106834,0.08690006332528864,0.03176949807108769
57700,0.2137952247855143,0.575163453340893,0.9410642922054447,0.0568228440395924,0.06316777534575556,0.04342948210896091
57800,0.29716602311013174,0.16383244563440227,1.0677017318119977,0.009225564289979627,0.05762624688793956,0.0546692840788708
57900,0.40414915928946604,0.2039518767589755,1.2210334164850842,0.02788457153327306,0.08626080934168795,0.04504837884926273
58000,0.40253655682017087,0.16285909667213014,1.1230892671508836,0.09340225959215996,0.09742599363613835,0.00984553432498473
58100,0.30343383019201753,0.4431540767349299,0.9366323493622912,0.08786684334618738,0.06298919403953392,0.024452585580038457
58200,0.5757975601332808,0.16684009002508524,0.881719606597781,0.022090038215819043,0.052450253656256475,0.03268894878418376
58300,0.15430711774572972,0.49152882400791265,0.8460415458150914,0.09398924425825998,0.04891993073201009,0.05023219780802948
58400,0.3483769142321528,0.3019872091337501,1.0516958388422348,0.04532320565099876,0.0024940883197875244,0.003484943318069733
58500,0.44226113535177836,0.4594052275121212,1.1903872584658992,0.08359790735982625,0.01952328944152433,0.05054221377380607
58600,0.3708813662663003,0.3883775444321549,0.9854000100989398,0.01470477190772297,0.004286844279610203,0.06047488804553718
58700,0.12069502549771746,0.4490671163473803,1.16182179539807,0.09468019681304045,0.0431550524911577,0.04765099122429605
58800,0.33773424528313023,0.5675860439856258,0.982858611617506,0.04984792184676239,0.06837620311543711,0.004086427930458625
58900,0.34414330932307846,0.45617888820333685,1.2648306923017791,0.08839613356474212,0.0684129974229482,0.026058729198463373
59000,0.3858531392025366,0.42766736112674275,1.1158412441613084,0.06564758425879251,0.030100285779372418,0.0016459010376396188
59100,0.32368763586096183,0.4478951716767545,0.8459020158265107,0.0273207862239233,0.09071813216201684,0.08334940653392908
59200,0.28008154517568906,0.22059684323084286,1.1714023863636491,0.017488317721875434,0.09458118477916366,0.0867110360468074
59300,0.44646967710167185,0.3438256815718903,1.050322139904942,0.03201495418031016,0.03678183254468042,0.08105862885711654
59400,0.16771839115233225,0.4095729337002153,1.0652140888110506,0.022736698583842252,0.01880323643331039,0.08679058268656725
59500,0.19211195206638718,0.3421296693888025,1.1546069541850954,0.04213919602895099,0.040479717522535125,0.07295924234674442
59600,0.115446257732258,0.5237865005182789,1.1139696051573122,0.09626161281185265,0.07181087889938817,0.095281586028797
59700,0.12177812475002933,0.5631548215040838,0.9840738089662613,0.024967651763906473,0.06199298561207073,0.051279387707386916
59800,0.45368223493923066,0.341325001089279,1.0382215714450398,0.00766223788028565,0.021536680356819674,0.05479010183877497
59900,0.5567642309798776,0.5186474996215883,0.9219616033985283,0.025128165343107647,0.06941457225344731,0.09918554145661354
