t,ax,ay,az,gx,gy,gz
163,2.1164744,1.8650831,9.167398,0.014660766,-0.004886922,0.004886922
252,2.1452048,2.0973208,9.155427,0.013439035,-0.028099801,-0.0012217305
334,2.0207062,2.2697031,9.495404,-0.052534413,-0.096516706,0.008552114
412,1.8794483,1.9608512,10.5440645,-0.63041294,-0.38240165,0.0061086523
489,2.645593,-0.4381389,10.187328,-1.3866642,-0.784351,-0.02443461
566,2.6001031,-0.59855044,9.619903,-2.0011945,-0.84665924,-0.21991149
649,4.560954,-2.5953147,7.5944076,-3.9413025,-2.0329595,-1.813048
731,6.184223,-3.3423057,6.4643445,-3.79836,-1.672549,-2.3005185
811,6.9647326,-4.084508,4.7070007,-2.302962,-0.84788096,-1.8423696
890,7.97748,-3.4979286,3.9576154,-0.5656612,-0.5681047,-1.3353515
972,8.971074,0.0047884034,3.6056678,-0.93951076,-0.40194935,-0.5876524
1051,9.291897,-2.5378537,1.3575124,-2.4666739,-0.3885103,-0.86132
1129,8.848969,-1.7310078,2.7820623,0.3200934,0.5546656,0.17470746
1224,8.573636,-4.6591167,4.390966,-0.9578367,0.103847094,-0.3115413
1302,8.825027,-4.261679,3.8786068,0.9309586,0.20280726,-0.10873401
1381,8.695741,-1.3623008,3.181894,0.6230826,0.07086037,-0.15271631
1461,8.6574335,-2.0350714,3.8379054,-0.12461651,0,-0.07819075
1542,8.884883,-2.3678656,3.4739866,-0.02687807,0.018325957,0.018325957
1620,8.781932,-2.231396,3.6511576,0.014660766,0.04153884,0.009773844
1699,8.678981,-2.4899697,3.691859,-0.02076942,0.0036651916,-0.015882496
1789,8.698134,-2.3295584,3.7110126,-0.02076942,0.004886922,0.015882496
1918,8.698134,-2.3295584,3.7110126,-0.02076942,0.004886922,0.015882496
2006,8.698134,-2.3295584,3.7110126,-0.02076942,0.004886922,0.015882496
2083,8.698134,-2.3295584,3.7110126,-0.02076942,0.004886922,0.015882496
2172,8.698134,-2.3295584,3.7110126,-0.02076942,0.004886922,0.015882496
2249,8.698134,-2.3295584,3.7110126,-0.02076942,0.004886922,0.015882496
2329,8.698134,-2.3295584,3.7110126,-0.02076942,0.004886922,0.015882496
2409,8.698134,-2.3295584,3.7110126,-0.02076942,0.004886922,0.015882496
2492,8.698134,-2.3295584,3.7110126,-0.02076942,0.004886922,0.015882496
2573,8.698134,-2.3295584,3.7110126,-0.02076942,0.004886922,0.015882496
2653,8.698134,-2.3295584,3.7110126,-0.02076942,0.004886922,0.015882496
2734,8.698134,-2.3295584,3.7110126,-0.02076942,0.004886922,0.015882496
2816,8.698134,-2.3295584,3.7110126,-0.02076942,0.004886922,0.015882496
2897,8.698134,-2.3295584,3.7110126,-0.02076942,0.004886922,0.015882496
2978,8.698134,-2.3295584,3.7110126,-0.02076942,0.004886922,0.015882496
3059,8.698134,-2.3295584,3.7110126,-0.02076942,0.004886922,0.015882496
3139,8.698134,-2.3295584,3.7110126,-0.02076942,0.004886922,0.015882496
3246,8.698134,-2.3295584,3.7110126,-0.02076942,0.004886922,0.015882496
3326,8.698134,-2.3295584,3.7110126,-0.02076942,0.004886922,0.015882496
3406,8.698134,-2.3295584,3.7110126,-0.02076942,0.004886922,0.015882496
3487,8.698134,-2.3295584,3.7110126,-0.02076942,0.004886922,0.015882496
3568,8.698134,-2.3295584,3.7110126,-0.02076942,0.004886922,0.015882496
3649,8.698134,-2.3295584,3.7110126,-0.02076942,0.004886922,0.015882496
3732,8.698134,-2.3295584,3.7110126,-0.02076942,0.004886922,0.015882496
3811,8.698134,-2.3295584,3.7110126,-0.02076942,0.004886922,0.015882496
3899,8.698134,-2.3295584,3.7110126,-0.02076942,0.004886922,0.015882496
3979,8.698134,-2.3295584,3.7110126,-0.02076942,0.004886922,0.015882496
4057,8.698134,-2.3295584,3.7110126,-0.02076942,0.004886922,0.015882496
4137,8.698134,-2.3295584,3.7110126,-0.02076942,0.004886922,0.015882496
4216,8.698134,-2.3295584,3.7110126,-0.02076942,0.004886922,0.015882496
4297,8.698134,-2.3295584,3.7110126,-0.02076942,0.004886922,0.015882496
4379,8.698134,-2.3295584,3.7110126,-0.02076942,0.004886922,0.015882496
4459,8.698134,-2.3295584,3.7110126,-0.02076942,0.004886922,0.015882496
4540,8.698134,-2.3295584,3.7110126,-0.02076942,0.004886922,0.015882496
4622,8.698134,-2.3295584,3.7110126,-0.02076942,0.004886922,0.015882496
4704,8.698134,-2.3295584,3.7110126,-0.02076942,0.004886922,0.015882496
4785,8.698134,-2.3295584,3.7110126,-0.02076942,0.004886922,0.015882496
4866,8.698134,-2.3295584,3.7110126,-0.02076942,0.004886922,0.015882496
4948,8.698134,-2.3295584,3.7110126,-0.02076942,0.004886922,0.015882496
5029,8.698134,-2.3295584,3.7110126,-0.02076942,0.004886922,0.015882496
5110,8.698134,-2.3295584,3.7110126,-0.02076942,0.004886922,0.015882496
5192,8.698134,-2.3295584,3.7110126,-0.02076942,0.004886922,0.015882496
5273,8.698134,-2.3295584,3.7110126,-0.02076942,0.004886922,0.015882496
5354,8.698134,-2.3295584,3.7110126,-0.02076942,0.004886922,0.015882496
5436,8.698134,-2.3295584,3.7110126,-0.02076942,0.004886922,0.015882496
5517,8.698134,-2.3295584,3.7110126,-0.02076942,0.004886922,0.015882496
5599,8.698134,-2.3295584,3.7110126,-0.02076942,0.004886922,0.015882496
5680,8.698134,-2.3295584,3.7110126,-0.02076942,0.004886922,0.015882496
5761,8.698134,-2.3295584,3.7110126,-0.02076942,0.004886922,0.015882496
5843,8.698134,-2.3295584,3.7110126,-0.02076942,0.004886922,0.015882496
5924,8.698134,-2.3295584,3.7110126,-0.02076942,0.004886922,0.015882496
6006,8.698134,-2.3295584,3.7110126,-0.02076942,0.004886922,0.015882496
6083,8.698134,-2.3295584,3.7110126,-0.02076942,0.004886922,0.015882496
6162,8.698134,-2.3295584,3.7110126,-0.02076942,0.004886922,0.015882496
6245,8.698134,-2.3295584,3.7110126,-0.02076942,0.004886922,0.015882496
6327,8.698134,-2.3295584,3.7110126,-0.02076942,0.004886922,0.015882496
6407,8.698134,-2.3295584,3.7110126,-0.02076942,0.004886922,0.015882496
6489,8.698134,-2.3295584,3.7110126,-0.02076942,0.004886922,0.015882496
6569,8.698134,-2.3295584,3.7110126,-0.02076942,0.004886922,0.015882496
6649,8.698134,-2.3295584,3.7110126,-0.02076942,0.004886922,0.015882496
6731,8.698134,-2.3295584,3.7110126,-0.02076942,0.004886922,0.015882496
6812,8.698134,-2.3295584,3.7110126,-0.02076942,0.004886922,0.015882496
6890,8.698134,-2.3295584,3.7110126,-0.02076942,0.004886922,0.015882496
7023,4.453215,5.12838,6.244078,-0.002443461,-0.02565634,0.021991149
7102,3.727772,7.4124484,6.3661823,-1.3610078,0.17348573,-0.3200934
7181,3.9600096,2.0566192,9.035717,-0.874759,0.23457226,-0.24923302
7264,3.6152446,4.156334,7.9631147,-0.893085,0.010995574,-0.059864793
7340,3.4452562,2.4612393,8.542512,-1.4220943,0.11728613,0.0012217305
7418,3.3901896,1.3718776,8.848969,-0.7452556,0.13927728,0.04153884
7495,3.6703112,1.3503298,9.081207,-0.39095375,-0.037873644,-0.058643065
7572,3.4715924,2.2146366,8.899248,0.030543262,-0.08674286,0.019547688
7648,3.5122938,1.0510546,8.973468,-0.062308256,-0.13439035,0.032986723
7726,3.892972,1.6663644,8.6334915,0.02687807,-0.1441642,0.034208454
7808,3.9624038,1.7980455,8.439561,0.056199603,-0.112399206,0.09162979
7893,3.9743748,1.4580688,8.212111,0.18081611,0.007330383,0.21746802
7971,4.010288,1.3192052,8.350976,0.15149458,0.12705997,0.19181168
8050,4.0916905,1.3718776,8.295909,0.13072516,0.18570304,0.030543262
8129,3.8235402,1.6208745,8.48984,0.04642576,0.26267207,-0.15393804
8249,2.7509377,1.9249382,9.330204,-0.3115413,0.36285394,-0.2687807
8344,2.765303,1.5179238,9.31105,0.12705997,0.095294975,0.042760566
8425,3.1483753,1.5370775,8.992621,0.07574729,0.02687807,0.057421334
8507,2.9735985,1.7477672,8.8777,0.080634214,-0.007330383,-0.012217305
8589,2.72939,1.7884687,9.121908,-0.007330383,-0.04520403,-0.10629055
8669,3.0550013,1.484405,8.836999,0.042760566,-0.013439035,-0.02687807
8749,3.028665,1.7166426,8.882488,0.0036651916,0.014660766,0.028099801
8831,3.0693667,1.6208745,8.865729,0.028099801,-0.021991149,-0.021991149
8916,2.9161377,1.8100165,8.901642,0.002443461,0.02565634,-0.089186326
8994,2.767697,2.0949266,8.980651,-0.0012217305,0.042760566,0.0061086523
9090,2.6743233,1.7764976,9.548077,-0.13439035,-0.20158553,0.07941248
9191,3.110068,2.171541,9.576807,-0.6414085,-0.9944886,0.36163223
9270,4.3622355,0.9576807,7.9726915,-1.3182472,-1.5234979,0.6267477
9347,5.6646814,-1.412579,7.3190746,-1.7971655,-1.486846,0.66706485
9431,6.0238113,-2.7581203,6.5577183,-1.7250835,-1.2009611,0.5558874
9514,6.7612257,-3.6224272,5.1523223,-1.8142698,-0.8527679,0.20280726
9599,7.240066,-4.3047748,4.390966,-1.7556267,-0.5729916,0.09162979
9678,7.225701,-5.2720323,4.1539397,-0.9370673,-0.28221974,0.09896017
9756,7.264008,-5.2121773,4.0174704,-0.6951646,-0.03176499,0.07819075
9836,7.2687964,-5.257667,3.9911342,0.08552113,-0.015882496,0.08674286
9915,7.2304893,-5.4803276,3.6631286,-0.33964106,-0.015882496,0.25411993
10001,7.053318,-5.647922,2.9472623,-0.36896262,0.23335053,0.66950834
10079,6.447585,-5.485116,4.285621,0.17592919,0.8197812,1.0934488
10257,4.584896,-6.5840545,4.8243165,-2.2015584,0.42149702,0.3359759
10335,4.3646297,-8.674192,1.8650831,-4.745201,0.2761111,-0.19792034
10415,3.8953662,-14.015656,-0.059855044,-2.4043655,-0.029321533,-0.47769663
10498,4.534618,-3.6128504,-0.7469909,1.2864822,-0.04153884,-0.51068336
10579,5.401319,-8.846576,-0.7565677,-0.7696902,-0.14172074,0.2968805
10657,4.984728,-9.346964,-2.882619,-0.89675015,0.08307768,0.46792278
10739,4.7022123,-9.081207,-0.85473,0.7501425,0.45081854,-0.018325957
10819,4.8745947,-8.358158,-0.5291186,0.08307768,0.073303826,0.02687807
10900,4.939238,-9.466674,-0.2657564,0.54000485,-0.019547688,0.10262536
10981,4.7884035,-8.839393,-0.9744401,0.3494149,-0.13194689,0.0036651916
11123,4.8698063,-9.13388,-1.0055647,0.6426302,-0.10873401,-0.08674286
11256,4.8698063,-9.13388,-1.0055647,0.6426302,-0.10873401,-0.08674286
11347,4.8698063,-9.13388,-1.0055647,0.6426302,-0.10873401,-0.08674286
11425,4.8698063,-9.13388,-1.0055647,0.6426302,-0.10873401,-0.08674286
11505,4.8698063,-9.13388,-1.0055647,0.6426302,-0.10873401,-0.08674286
11585,4.8698063,-9.13388,-1.0055647,0.6426302,-0.10873401,-0.08674286
11667,4.8698063,-9.13388,-1.0055647,0.6426302,-0.10873401,-0.08674286
11749,4.8698063,-9.13388,-1.0055647,0.6426302,-0.10873401,-0.08674286
11829,4.8698063,-9.13388,-1.0055647,0.6426302,-0.10873401,-0.08674286
11915,4.8698063,-9.13388,-1.0055647,0.6426302,-0.10873401,-0.08674286
11995,4.8698063,-9.13388,-1.0055647,0.6426302,-0.10873401,-0.08674286
12075,4.8698063,-9.13388,-1.0055647,0.6426302,-0.10873401,-0.08674286
12156,4.8698063,-9.13388,-1.0055647,0.6426302,-0.10873401,-0.08674286
12255,4.8698063,-9.13388,-1.0055647,0.6426302,-0.10873401,-0.08674286
12334,4.8698063,-9.13388,-1.0055647,0.6426302,-0.10873401,-0.08674286
12413,4.8698063,-9.13388,-1.0055647,0.6426302,-0.10873401,-0.08674286
12495,4.8698063,-9.13388,-1.0055647,0.6426302,-0.10873401,-0.08674286
12579,4.8698063,-9.13388,-1.0055647,0.6426302,-0.10873401,-0.08674286
12660,4.8698063,-9.13388,-1.0055647,0.6426302,-0.10873401,-0.08674286
12741,4.8698063,-9.13388,-1.0055647,0.6426302,-0.10873401,-0.08674286
12821,4.8698063,-9.13388,-1.0055647,0.6426302,-0.10873401,-0.08674286
12901,4.8698063,-9.13388,-1.0055647,0.6426302,-0.10873401,-0.08674286
12983,4.8698063,-9.13388,-1.0055647,0.6426302,-0.10873401,-0.08674286
13061,4.8698063,-9.13388,-1.0055647,0.6426302,-0.10873401,-0.08674286
13144,4.8698063,-9.13388,-1.0055647,0.6426302,-0.10873401,-0.08674286
13223,4.8698063,-9.13388,-1.0055647,0.6426302,-0.10873401,-0.08674286
13304,4.8698063,-9.13388,-1.0055647,0.6426302,-0.10873401,-0.08674286
13385,4.8698063,-9.13388,-1.0055647,0.6426302,-0.10873401,-0.08674286
13465,4.8698063,-9.13388,-1.0055647,0.6426302,-0.10873401,-0.08674286
13546,4.8698063,-9.13388,-1.0055647,0.6426302,-0.10873401,-0.08674286
13627,4.8698063,-9.13388,-1.0055647,0.6426302,-0.10873401,-0.08674286
13707,4.8698063,-9.13388,-1.0055647,0.6426302,-0.10873401,-0.08674286
13788,4.8698063,-9.13388,-1.0055647,0.6426302,-0.10873401,-0.08674286
13868,4.8698063,-9.13388,-1.0055647,0.6426302,-0.10873401,-0.08674286
13947,4.8698063,-9.13388,-1.0055647,0.6426302,-0.10873401,-0.08674286
14028,4.8698063,-9.13388,-1.0055647,0.6426302,-0.10873401,-0.08674286
14109,4.8698063,-9.13388,-1.0055647,0.6426302,-0.10873401,-0.08674286
14190,4.8698063,-9.13388,-1.0055647,0.6426302,-0.10873401,-0.08674286
14271,4.8698063,-9.13388,-1.0055647,0.6426302,-0.10873401,-0.08674286
14353,4.8698063,-9.13388,-1.0055647,0.6426302,-0.10873401,-0.08674286
14434,4.8698063,-9.13388,-1.0055647,0.6426302,-0.10873401,-0.08674286
14515,4.8698063,-9.13388,-1.0055647,0.6426302,-0.10873401,-0.08674286
14596,4.8698063,-9.13388,-1.0055647,0.6426302,-0.10873401,-0.08674286
14677,4.8698063,-9.13388,-1.0055647,0.6426302,-0.10873401,-0.08674286
14761,4.8698063,-9.13388,-1.0055647,0.6426302,-0.10873401,-0.08674286
14843,4.8698063,-9.13388,-1.0055647,0.6426302,-0.10873401,-0.08674286
14924,4.8698063,-9.13388,-1.0055647,0.6426302,-0.10873401,-0.08674286
15006,4.8698063,-9.13388,-1.0055647,0.6426302,-0.10873401,-0.08674286
15111,4.8698063,-9.13388,-1.0055647,0.6426302,-0.10873401,-0.08674286
15192,4.8698063,-9.13388,-1.0055647,0.6426302,-0.10873401,-0.08674286
15272,4.8698063,-9.13388,-1.0055647,0.6426302,-0.10873401,-0.08674286
15353,4.8698063,-9.13388,-1.0055647,0.6426302,-0.10873401,-0.08674286
15433,4.8698063,-9.13388,-1.0055647,0.6426302,-0.10873401,-0.08674286
15515,4.8698063,-9.13388,-1.0055647,0.6426302,-0.10873401,-0.08674286
15596,4.8698063,-9.13388,-1.0055647,0.6426302,-0.10873401,-0.08674286
15675,4.8698063,-9.13388,-1.0055647,0.6426302,-0.10873401,-0.08674286
15756,4.8698063,-9.13388,-1.0055647,0.6426302,-0.10873401,-0.08674286
15837,4.8698063,-9.13388,-1.0055647,0.6426302,-0.10873401,-0.08674286
15918,4.8698063,-9.13388,-1.0055647,0.6426302,-0.10873401,-0.08674286
15999,4.8698063,-9.13388,-1.0055647,0.6426302,-0.10873401,-0.08674286
16079,4.8698063,-9.13388,-1.0055647,0.6426302,-0.10873401,-0.08674286
16159,4.8698063,-9.13388,-1.0055647,0.6426302,-0.10873401,-0.08674286
16239,4.8698063,-9.13388,-1.0055647,0.6426302,-0.10873401,-0.08674286
16319,4.8698063,-9.13388,-1.0055647,0.6426302,-0.10873401,-0.08674286
16399,4.8698063,-9.13388,-1.0055647,0.6426302,-0.10873401,-0.08674286
16479,4.8698063,-9.13388,-1.0055647,0.6426302,-0.10873401,-0.08674286
16560,4.8698063,-9.13388,-1.0055647,0.6426302,-0.10873401,-0.08674286
16641,4.8698063,-9.13388,-1.0055647,0.6426302,-0.10873401,-0.08674286
16723,4.8698063,-9.13388,-1.0055647,0.6426302,-0.10873401,-0.08674286
16803,4.8698063,-9.13388,-1.0055647,0.6426302,-0.10873401,-0.08674286
16884,4.8698063,-9.13388,-1.0055647,0.6426302,-0.10873401,-0.08674286
16967,4.8698063,-9.13388,-1.0055647,0.6426302,-0.10873401,-0.08674286
17047,4.8698063,-9.13388,-1.0055647,0.6426302,-0.10873401,-0.08674286
17153,4.8698063,-9.13388,-1.0055647,0.6426302,-0.10873401,-0.08674286
17236,4.8698063,-9.13388,-1.0055647,0.6426302,-0.10873401,-0.08674286
17316,4.8698063,-9.13388,-1.0055647,0.6426302,-0.10873401,-0.08674286
17396,4.8698063,-9.13388,-1.0055647,0.6426302,-0.10873401,-0.08674286
17478,4.8698063,-9.13388,-1.0055647,0.6426302,-0.10873401,-0.08674286
17558,4.8698063,-9.13388,-1.0055647,0.6426302,-0.10873401,-0.08674286
17640,4.8698063,-9.13388,-1.0055647,0.6426302,-0.10873401,-0.08674286
17719,4.8698063,-9.13388,-1.0055647,0.6426302,-0.10873401,-0.08674286
17800,4.8698063,-9.13388,-1.0055647,0.6426302,-0.10873401,-0.08674286
17881,4.8698063,-9.13388,-1.0055647,0.6426302,-0.10873401,-0.08674286
17961,4.8698063,-9.13388,-1.0055647,0.6426302,-0.10873401,-0.08674286
18043,4.8698063,-9.13388,-1.0055647,0.6426302,-0.10873401,-0.08674286
18121,4.8698063,-9.13388,-1.0055647,0.6426302,-0.10873401,-0.08674286
18201,4.8698063,-9.13388,-1.0055647,0.6426302,-0.10873401,-0.08674286
18283,4.8698063,-9.13388,-1.0055647,0.6426302,-0.10873401,-0.08674286
18364,4.8698063,-9.13388,-1.0055647,0.6426302,-0.10873401,-0.08674286
18445,4.8698063,-9.13388,-1.0055647,0.6426302,-0.10873401,-0.08674286
18527,4.8698063,-9.13388,-1.0055647,0.6426302,-0.10873401,-0.08674286
18610,4.8698063,-9.13388,-1.0055647,0.6426302,-0.10873401,-0.08674286
18691,4.8698063,-9.13388,-1.0055647,0.6426302,-0.10873401,-0.08674286
18772,4.8698063,-9.13388,-1.0055647,0.6426302,-0.10873401,-0.08674286
18854,4.8698063,-9.13388,-1.0055647,0.6426302,-0.10873401,-0.08674286
18935,4.8698063,-9.13388,-1.0055647,0.6426302,-0.10873401,-0.08674286
19018,4.8698063,-9.13388,-1.0055647,0.6426302,-0.10873401,-0.08674286
19099,4.8698063,-9.13388,-1.0055647,0.6426302,-0.10873401,-0.08674286
19195,4.8698063,-9.13388,-1.0055647,0.6426302,-0.10873401,-0.08674286
19277,4.8698063,-9.13388,-1.0055647,0.6426302,-0.10873401,-0.08674286
19356,4.8698063,-9.13388,-1.0055647,0.6426302,-0.10873401,-0.08674286
19437,4.8698063,-9.13388,-1.0055647,0.6426302,-0.10873401,-0.08674286
19520,4.8698063,-9.13388,-1.0055647,0.6426302,-0.10873401,-0.08674286
19601,4.8698063,-9.13388,-1.0055647,0.6426302,-0.10873401,-0.08674286
19682,4.8698063,-9.13388,-1.0055647,0.6426302,-0.10873401,-0.08674286
19761,4.8698063,-9.13388,-1.0055647,0.6426302,-0.10873401,-0.08674286
19844,4.8698063,-9.13388,-1.0055647,0.6426302,-0.10873401,-0.08674286
19925,4.8698063,-9.13388,-1.0055647,0.6426302,-0.10873401,-0.08674286
20006,4.8698063,-9.13388,-1.0055647,0.6426302,-0.10873401,-0.08674286
20088,4.8698063,-9.13388,-1.0055647,0.6426302,-0.10873401,-0.08674286
20167,4.8698063,-9.13388,-1.0055647,0.6426302,-0.10873401,-0.08674286
20247,4.8698063,-9.13388,-1.0055647,0.6426302,-0.10873401,-0.08674286
20328,4.8698063,-9.13388,-1.0055647,0.6426302,-0.10873401,-0.08674286
20409,4.8698063,-9.13388,-1.0055647,0.6426302,-0.10873401,-0.08674286
20491,4.8698063,-9.13388,-1.0055647,0.6426302,-0.10873401,-0.08674286
20572,4.8698063,-9.13388,-1.0055647,0.6426302,-0.10873401,-0.08674286
20653,4.8698063,-9.13388,-1.0055647,0.6426302,-0.10873401,-0.08674286
20735,4.8698063,-9.13388,-1.0055647,0.6426302,-0.10873401,-0.08674286
20816,4.8698063,-9.13388,-1.0055647,0.6426302,-0.10873401,-0.08674286
20898,4.8698063,-9.13388,-1.0055647,0.6426302,-0.10873401,-0.08674286
20979,4.8698063,-9.13388,-1.0055647,0.6426302,-0.10873401,-0.08674286
21061,4.8698063,-9.13388,-1.0055647,0.6426302,-0.10873401,-0.08674286
21138,4.8698063,-9.13388,-1.0055647,0.6426302,-0.10873401,-0.08674286
21240,4.8698063,-9.13388,-1.0055647,0.6426302,-0.10873401,-0.08674286
21320,4.8698063,-9.13388,-1.0055647,0.6426302,-0.10873401,-0.08674286
21400,4.8698063,-9.13388,-1.0055647,0.6426302,-0.10873401,-0.08674286
21481,4.8698063,-9.13388,-1.0055647,0.6426302,-0.10873401,-0.08674286
21561,4.8698063,-9.13388,-1.0055647,0.6426302,-0.10873401,-0.08674286
21643,4.8698063,-9.13388,-1.0055647,0.6426302,-0.10873401,-0.08674286
21725,4.8698063,-9.13388,-1.0055647,0.6426302,-0.10873401,-0.08674286
21804,4.8698063,-9.13388,-1.0055647,0.6426302,-0.10873401,-0.08674286
21885,4.8698063,-9.13388,-1.0055647,0.6426302,-0.10873401,-0.08674286
21967,4.8698063,-9.13388,-1.0055647,0.6426302,-0.10873401,-0.08674286
22057,4.8698063,-9.13388,-1.0055647,0.6426302,-0.10873401,-0.08674286
22139,4.8698063,-9.13388,-1.0055647,0.6426302,-0.10873401,-0.08674286
22218,4.8698063,-9.13388,-1.0055647,0.6426302,-0.10873401,-0.08674286
22301,4.8698063,-9.13388,-1.0055647,0.6426302,-0.10873401,-0.08674286
22381,4.8698063,-9.13388,-1.0055647,0.6426302,-0.10873401,-0.08674286
22463,4.8698063,-9.13388,-1.0055647,0.6426302,-0.10873401,-0.08674286
22544,4.8698063,-9.13388,-1.0055647,0.6426302,-0.10873401,-0.08674286
22623,4.8698063,-9.13388,-1.0055647,0.6426302,-0.10873401,-0.08674286
22703,4.8698063,-9.13388,-1.0055647,0.6426302,-0.10873401,-0.08674286
22784,4.8698063,-9.13388,-1.0055647,0.6426302,-0.10873401,-0.08674286
22864,4.8698063,-9.13388,-1.0055647,0.6426302,-0.10873401,-0.08674286
22945,4.8698063,-9.13388,-1.0055647,0.6426302,-0.10873401,-0.08674286
23025,4.8698063,-9.13388,-1.0055647,0.6426302,-0.10873401,-0.08674286
23105,4.8698063,-9.13388,-1.0055647,0.6426302,-0.10873401,-0.08674286
23185,4.8698063,-9.13388,-1.0055647,0.6426302,-0.10873401,-0.08674286
23267,4.8698063,-9.13388,-1.0055647,0.6426302,-0.10873401,-0.08674286
23349,4.8698063,-9.13388,-1.0055647,0.6426302,-0.10873401,-0.08674286
23430,4.8698063,-9.13388,-1.0055647,0.6426302,-0.10873401,-0.08674286
23512,4.8698063,-9.13388,-1.0055647,0.6426302,-0.10873401,-0.08674286
23593,4.8698063,-9.13388,-1.0055647,0.6426302,-0.10873401,-0.08674286
23674,4.8698063,-9.13388,-1.0055647,0.6426302,-0.10873401,-0.08674286
23756,4.8698063,-9.13388,-1.0055647,0.6426302,-0.10873401,-0.08674286
23838,4.8698063,-9.13388,-1.0055647,0.6426302,-0.10873401,-0.08674286
23919,4.8698063,-9.13388,-1.0055647,0.6426302,-0.10873401,-0.08674286
24000,4.8698063,-9.13388,-1.0055647,0.6426302,-0.10873401,-0.08674286
24097,4.8698063,-9.13388,-1.0055647,0.6426302,-0.10873401,-0.08674286
24176,4.8698063,-9.13388,-1.0055647,0.6426302,-0.10873401,-0.08674286
24255,4.8698063,-9.13388,-1.0055647,0.6426302,-0.10873401,-0.08674286
24337,4.8698063,-9.13388,-1.0055647,0.6426302,-0.10873401,-0.08674286
24418,4.8698063,-9.13388,-1.0055647,0.6426302,-0.10873401,-0.08674286
24500,4.8698063,-9.13388,-1.0055647,0.6426302,-0.10873401,-0.08674286
24580,4.8698063,-9.13388,-1.0055647,0.6426302,-0.10873401,-0.08674286
24660,4.8698063,-9.13388,-1.0055647,0.6426302,-0.10873401,-0.08674286
24741,4.8698063,-9.13388,-1.0055647,0.6426302,-0.10873401,-0.08674286
24823,4.8698063,-9.13388,-1.0055647,0.6426302,-0.10873401,-0.08674286
24904,4.8698063,-9.13388,-1.0055647,0.6426302,-0.10873401,-0.08674286
24984,4.8698063,-9.13388,-1.0055647,0.6426302,-0.10873401,-0.08674286
25067,4.8698063,-9.13388,-1.0055647,0.6426302,-0.10873401,-0.08674286
25146,4.8698063,-9.13388,-1.0055647,0.6426302,-0.10873401,-0.08674286
25227,4.8698063,-9.13388,-1.0055647,0.6426302,-0.10873401,-0.08674286
25308,4.8698063,-9.13388,-1.0055647,0.6426302,-0.10873401,-0.08674286
25389,4.8698063,-9.13388,-1.0055647,0.6426302,-0.10873401,-0.08674286
25470,4.8698063,-9.13388,-1.0055647,0.6426302,-0.10873401,-0.08674286
25552,4.8698063,-9.13388,-1.0055647,0.6426302,-0.10873401,-0.08674286
25633,4.8698063,-9.13388,-1.0055647,0.6426302,-0.10873401,-0.08674286
25713,4.8698063,-9.13388,-1.0055647,0.6426302,-0.10873401,-0.08674286
25795,4.8698063,-9.13388,-1.0055647,0.6426302,-0.10873401,-0.08674286
25877,4.8698063,-9.13388,-1.0055647,0.6426302,-0.10873401,-0.08674286
25958,4.8698063,-9.13388,-1.0055647,0.6426302,-0.10873401,-0.08674286
26040,4.8698063,-9.13388,-1.0055647,0.6426302,-0.10873401,-0.08674286
26143,4.8698063,-9.13388,-1.0055647,0.6426302,-0.10873401,-0.08674286
26223,4.8698063,-9.13388,-1.0055647,0.6426302,-0.10873401,-0.08674286
26302,4.8698063,-9.13388,-1.0055647,0.6426302,-0.10873401,-0.08674286
26384,4.8698063,-9.13388,-1.0055647,0.6426302,-0.10873401,-0.08674286
26465,4.8698063,-9.13388,-1.0055647,0.6426302,-0.10873401,-0.08674286
26547,4.8698063,-9.13388,-1.0055647,0.6426302,-0.10873401,-0.08674286
26629,4.8698063,-9.13388,-1.0055647,0.6426302,-0.10873401,-0.08674286
26708,4.8698063,-9.13388,-1.0055647,0.6426302,-0.10873401,-0.08674286
26789,4.8698063,-9.13388,-1.0055647,0.6426302,-0.10873401,-0.08674286
26871,4.8698063,-9.13388,-1.0055647,0.6426302,-0.10873401,-0.08674286
26952,4.8698063,-9.13388,-1.0055647,0.6426302,-0.10873401,-0.08674286
27033,4.8698063,-9.13388,-1.0055647,0.6426302,-0.10873401,-0.08674286
27115,4.8698063,-9.13388,-1.0055647,0.6426302,-0.10873401,-0.08674286
27195,4.8698063,-9.13388,-1.0055647,0.6426302,-0.10873401,-0.08674286
27277,4.8698063,-9.13388,-1.0055647,0.6426302,-0.10873401,-0.08674286
27357,4.8698063,-9.13388,-1.0055647,0.6426302,-0.10873401,-0.08674286
27439,4.8698063,-9.13388,-1.0055647,0.6426302,-0.10873401,-0.08674286
27520,4.8698063,-9.13388,-1.0055647,0.6426302,-0.10873401,-0.08674286
27601,4.8698063,-9.13388,-1.0055647,0.6426302,-0.10873401,-0.08674286
27683,4.8698063,-9.13388,-1.0055647,0.6426302,-0.10873401,-0.08674286
27764,4.8698063,-9.13388,-1.0055647,0.6426302,-0.10873401,-0.08674286
27845,4.8698063,-9.13388,-1.0055647,0.6426302,-0.10873401,-0.08674286
27926,4.8698063,-9.13388,-1.0055647,0.6426302,-0.10873401,-0.08674286
28007,4.8698063,-9.13388,-1.0055647,0.6426302,-0.10873401,-0.08674286
28089,4.8698063,-9.13388,-1.0055647,0.6426302,-0.10873401,-0.08674286
28186,4.8698063,-9.13388,-1.0055647,0.6426302,-0.10873401,-0.08674286
28268,4.8698063,-9.13388,-1.0055647,0.6426302,-0.10873401,-0.08674286
28348,4.8698063,-9.13388,-1.0055647,0.6426302,-0.10873401,-0.08674286
28429,4.8698063,-9.13388,-1.0055647,0.6426302,-0.10873401,-0.08674286
28509,4.8698063,-9.13388,-1.0055647,0.6426302,-0.10873401,-0.08674286
28591,4.8698063,-9.13388,-1.0055647,0.6426302,-0.10873401,-0.08674286
28672,4.8698063,-9.13388,-1.0055647,0.6426302,-0.10873401,-0.08674286
28751,4.8698063,-9.13388,-1.0055647,0.6426302,-0.10873401,-0.08674286
28832,4.8698063,-9.13388,-1.0055647,0.6426302,-0.10873401,-0.08674286
28913,4.8698063,-9.13388,-1.0055647,0.6426302,-0.10873401,-0.08674286
28993,4.8698063,-9.13388,-1.0055647,0.6426302,-0.10873401,-0.08674286
29075,4.8698063,-9.13388,-1.0055647,0.6426302,-0.10873401,-0.08674286
29155,4.8698063,-9.13388,-1.0055647,0.6426302,-0.10873401,-0.08674286
29236,4.8698063,-9.13388,-1.0055647,0.6426302,-0.10873401,-0.08674286
29317,4.8698063,-9.13388,-1.0055647,0.6426302,-0.10873401,-0.08674286
29397,4.8698063,-9.13388,-1.0055647,0.6426302,-0.10873401,-0.08674286
29479,4.8698063,-9.13388,-1.0055647,0.6426302,-0.10873401,-0.08674286
29560,4.8698063,-9.13388,-1.0055647,0.6426302,-0.10873401,-0.08674286
29641,4.8698063,-9.13388,-1.0055647,0.6426302,-0.10873401,-0.08674286
29723,4.8698063,-9.13388,-1.0055647,0.6426302,-0.10873401,-0.08674286
29804,4.8698063,-9.13388,-1.0055647,0.6426302,-0.10873401,-0.08674286
29886,4.8698063,-9.13388,-1.0055647,0.6426302,-0.10873401,-0.08674286
29969,4.8698063,-9.13388,-1.0055647,0.6426302,-0.10873401,-0.08674286
30051,4.8698063,-9.13388,-1.0055647,0.6426302,-0.10873401,-0.08674286
30132,4.8698063,-9.13388,-1.0055647,0.6426302,-0.10873401,-0.08674286
30232,4.8698063,-9.13388,-1.0055647,0.6426302,-0.10873401,-0.08674286
30314,4.8698063,-9.13388,-1.0055647,0.6426302,-0.10873401,-0.08674286
30394,4.8698063,-9.13388,-1.0055647,0.6426302,-0.10873401,-0.08674286
30476,4.8698063,-9.13388,-1.0055647,0.6426302,-0.10873401,-0.08674286
30557,4.8698063,-9.13388,-1.0055647,0.6426302,-0.10873401,-0.08674286
30638,4.8698063,-9.13388,-1.0055647,0.6426302,-0.10873401,-0.08674286
30720,4.8698063,-9.13388,-1.0055647,0.6426302,-0.10873401,-0.08674286
30799,4.8698063,-9.13388,-1.0055647,0.6426302,-0.10873401,-0.08674286
30880,4.8698063,-9.13388,-1.0055647,0.6426302,-0.10873401,-0.08674286
30961,4.8698063,-9.13388,-1.0055647,0.6426302,-0.10873401,-0.08674286
31043,4.8698063,-9.13388,-1.0055647,0.6426302,-0.10873401,-0.08674286
31123,4.8698063,-9.13388,-1.0055647,0.6426302,-0.10873401,-0.08674286
31203,4.8698063,-9.13388,-1.0055647,0.6426302,-0.10873401,-0.08674286
31298,4.8698063,-9.13388,-1.0055647,0.6426302,-0.10873401,-0.08674286
31390,4.8698063,-9.13388,-1.0055647,0.6426302,-0.10873401,-0.08674286
31472,4.8698063,-9.13388,-1.0055647,0.6426302,-0.10873401,-0.08674286
31549,4.8698063,-9.13388,-1.0055647,0.6426302,-0.10873401,-0.08674286
31627,4.8698063,-9.13388,-1.0055647,0.6426302,-0.10873401,-0.08674286
31705,4.8698063,-9.13388,-1.0055647,0.6426302,-0.10873401,-0.08674286
31781,4.8698063,-9.13388,-1.0055647,0.6426302,-0.10873401,-0.08674286
31859,4.8698063,-9.13388,-1.0055647,0.6426302,-0.10873401,-0.08674286
31940,4.8698063,-9.13388,-1.0055647,0.6426302,-0.10873401,-0.08674286
32031,4.8698063,-9.13388,-1.0055647,0.6426302,-0.10873401,-0.08674286
32108,4.8698063,-9.13388,-1.0055647,0.6426302,-0.10873401,-0.08674286
32188,4.8698063,-9.13388,-1.0055647,0.6426302,-0.10873401,-0.08674286
32268,4.8698063,-9.13388,-1.0055647,0.6426302,-0.10873401,-0.08674286
32349,4.8698063,-9.13388,-1.0055647,0.6426302,-0.10873401,-0.08674286
32430,4.8698063,-9.13388,-1.0055647,0.6426302,-0.10873401,-0.08674286
32511,4.8698063,-9.13388,-1.0055647,0.6426302,-0.10873401,-0.08674286
32592,4.8698063,-9.13388,-1.0055647,0.6426302,-0.10873401,-0.08674286
32674,4.8698063,-9.13388,-1.0055647,0.6426302,-0.10873401,-0.08674286
32756,4.8698063,-9.13388,-1.0055647,0.6426302,-0.10873401,-0.08674286
32837,4.8698063,-9.13388,-1.0055647,0.6426302,-0.10873401,-0.08674286
32917,4.8698063,-9.13388,-1.0055647,0.6426302,-0.10873401,-0.08674286
32999,4.8698063,-9.13388,-1.0055647,0.6426302,-0.10873401,-0.08674286
33096,4.8698063,-9.13388,-1.0055647,0.6426302,-0.10873401,-0.08674286
33177,4.8698063,-9.13388,-1.0055647,0.6426302,-0.10873401,-0.08674286
33257,4.8698063,-9.13388,-1.0055647,0.6426302,-0.10873401,-0.08674286
33338,4.8698063,-9.13388,-1.0055647,0.6426302,-0.10873401,-0.08674286
33420,4.8698063,-9.13388,-1.0055647,0.6426302,-0.10873401,-0.08674286
33501,4.8698063,-9.13388,-1.0055647,0.6426302,-0.10873401,-0.08674286
33583,4.8698063,-9.13388,-1.0055647,0.6426302,-0.10873401,-0.08674286
33661,4.8698063,-9.13388,-1.0055647,0.6426302,-0.10873401,-0.08674286
33743,4.8698063,-9.13388,-1.0055647,0.6426302,-0.10873401,-0.08674286
33824,4.8698063,-9.13388,-1.0055647,0.6426302,-0.10873401,-0.08674286
33904,4.8698063,-9.13388,-1.0055647,0.6426302,-0.10873401,-0.08674286
33985,4.8698063,-9.13388,-1.0055647,0.6426302,-0.10873401,-0.08674286
34067,4.8698063,-9.13388,-1.0055647,0.6426302,-0.10873401,-0.08674286
34147,4.8698063,-9.13388,-1.0055647,0.6426302,-0.10873401,-0.08674286
34228,4.8698063,-9.13388,-1.0055647,0.6426302,-0.10873401,-0.08674286
34310,4.8698063,-9.13388,-1.0055647,0.6426302,-0.10873401,-0.08674286
34392,4.8698063,-9.13388,-1.0055647,0.6426302,-0.10873401,-0.08674286
34473,4.8698063,-9.13388,-1.0055647,0.6426302,-0.10873401,-0.08674286
34555,4.8698063,-9.13388,-1.0055647,0.6426302,-0.10873401,-0.08674286
34636,4.8698063,-9.13388,-1.0055647,0.6426302,-0.10873401,-0.08674286
34718,4.8698063,-9.13388,-1.0055647,0.6426302,-0.10873401,-0.08674286
34799,4.8698063,-9.13388,-1.0055647,0.6426302,-0.10873401,-0.08674286
34880,4.8698063,-9.13388,-1.0055647,0.6426302,-0.10873401,-0.08674286
34960,4.8698063,-9.13388,-1.0055647,0.6426302,-0.10873401,-0.08674286
35042,4.8698063,-9.13388,-1.0055647,0.6426302,-0.10873401,-0.08674286
35140,4.8698063,-9.13388,-1.0055647,0.6426302,-0.10873401,-0.08674286
35221,4.8698063,-9.13388,-1.0055647,0.6426302,-0.10873401,-0.08674286
35299,4.8698063,-9.13388,-1.0055647,0.6426302,-0.10873401,-0.08674286
35380,4.8698063,-9.13388,-1.0055647,0.6426302,-0.10873401,-0.08674286
35461,4.8698063,-9.13388,-1.0055647,0.6426302,-0.10873401,-0.08674286
35542,4.8698063,-9.13388,-1.0055647,0.6426302,-0.10873401,-0.08674286
35623,4.8698063,-9.13388,-1.0055647,0.6426302,-0.10873401,-0.08674286
35701,4.8698063,-9.13388,-1.0055647,0.6426302,-0.10873401,-0.08674286
35782,4.8698063,-9.13388,-1.0055647,0.6426302,-0.10873401,-0.08674286
35863,4.8698063,-9.13388,-1.0055647,0.6426302,-0.10873401,-0.08674286
35943,4.8698063,-9.13388,-1.0055647,0.6426302,-0.10873401,-0.08674286
36025,4.8698063,-9.13388,-1.0055647,0.6426302,-0.10873401,-0.08674286
36106,4.8698063,-9.13388,-1.0055647,0.6426302,-0.10873401,-0.08674286
36186,4.8698063,-9.13388,-1.0055647,0.6426302,-0.10873401,-0.08674286
36267,4.8698063,-9.13388,-1.0055647,0.6426302,-0.10873401,-0.08674286
36348,4.8698063,-9.13388,-1.0055647,0.6426302,-0.10873401,-0.08674286
36431,4.8698063,-9.13388,-1.0055647,0.6426302,-0.10873401,-0.08674286
36511,4.8698063,-9.13388,-1.0055647,0.6426302,-0.10873401,-0.08674286
36592,4.8698063,-9.13388,-1.0055647,0.6426302,-0.10873401,-0.08674286
36674,4.8698063,-9.13388,-1.0055647,0.6426302,-0.10873401,-0.08674286
36754,4.8698063,-9.13388,-1.0055647,0.6426302,-0.10873401,-0.08674286
36835,4.8698063,-9.13388,-1.0055647,0.6426302,-0.10873401,-0.08674286
36916,4.8698063,-9.13388,-1.0055647,0.6426302,-0.10873401,-0.08674286
36997,4.8698063,-9.13388,-1.0055647,0.6426302,-0.10873401,-0.08674286
37079,4.8698063,-9.13388,-1.0055647,0.6426302,-0.10873401,-0.08674286
37177,4.8698063,-9.13388,-1.0055647,0.6426302,-0.10873401,-0.08674286
37257,4.8698063,-9.13388,-1.0055647,0.6426302,-0.10873401,-0.08674286
37336,4.8698063,-9.13388,-1.0055647,0.6426302,-0.10873401,-0.08674286
37417,4.8698063,-9.13388,-1.0055647,0.6426302,-0.10873401,-0.08674286
37499,4.8698063,-9.13388,-1.0055647,0.6426302,-0.10873401,-0.08674286
37580,4.8698063,-9.13388,-1.0055647,0.6426302,-0.10873401,-0.08674286
37661,4.8698063,-9.13388,-1.0055647,0.6426302,-0.10873401,-0.08674286
37741,4.8698063,-9.13388,-1.0055647,0.6426302,-0.10873401,-0.08674286
37822,4.8698063,-9.13388,-1.0055647,0.6426302,-0.10873401,-0.08674286
37904,4.8698063,-9.13388,-1.0055647,0.6426302,-0.10873401,-0.08674286
37985,4.8698063,-9.13388,-1.0055647,0.6426302,-0.10873401,-0.08674286
38066,4.8698063,-9.13388,-1.0055647,0.6426302,-0.10873401,-0.08674286
38147,4.8698063,-9.13388,-1.0055647,0.6426302,-0.10873401,-0.08674286
38227,4.8698063,-9.13388,-1.0055647,0.6426302,-0.10873401,-0.08674286
38307,4.8698063,-9.13388,-1.0055647,0.6426302,-0.10873401,-0.08674286
38388,4.8698063,-9.13388,-1.0055647,0.6426302,-0.10873401,-0.08674286
38467,4.8698063,-9.13388,-1.0055647,0.6426302,-0.10873401,-0.08674286
38547,4.8698063,-9.13388,-1.0055647,0.6426302,-0.10873401,-0.08674286
38628,4.8698063,-9.13388,-1.0055647,0.6426302,-0.10873401,-0.08674286
38708,4.8698063,-9.13388,-1.0055647,0.6426302,-0.10873401,-0.08674286
38788,4.8698063,-9.13388,-1.0055647,0.6426302,-0.10873401,-0.08674286
38869,4.8698063,-9.13388,-1.0055647,0.6426302,-0.10873401,-0.08674286
38951,4.8698063,-9.13388,-1.0055647,0.6426302,-0.10873401,-0.08674286
39031,4.8698063,-9.13388,-1.0055647,0.6426302,-0.10873401,-0.08674286
39112,4.8698063,-9.13388,-1.0055647,0.6426302,-0.10873401,-0.08674286
39226,4.8698063,-9.13388,-1.0055647,0.6426302,-0.10873401,-0.08674286
39306,4.8698063,-9.13388,-1.0055647,0.6426302,-0.10873401,-0.08674286
39386,4.8698063,-9.13388,-1.0055647,0.6426302,-0.10873401,-0.08674286
39468,4.8698063,-9.13388,-1.0055647,0.6426302,-0.10873401,-0.08674286
39549,4.8698063,-9.13388,-1.0055647,0.6426302,-0.10873401,-0.08674286
39626,4.8698063,-9.13388,-1.0055647,0.6426302,-0.10873401,-0.08674286
39707,4.8698063,-9.13388,-1.0055647,0.6426302,-0.10873401,-0.08674286
39787,4.8698063,-9.13388,-1.0055647,0.6426302,-0.10873401,-0.08674286
39867,4.8698063,-9.13388,-1.0055647,0.6426302,-0.10873401,-0.08674286
39950,4.8698063,-9.13388,-1.0055647,0.6426302,-0.10873401,-0.08674286
40030,4.8698063,-9.13388,-1.0055647,0.6426302,-0.10873401,-0.08674286
40110,4.8698063,-9.13388,-1.0055647,0.6426302,-0.10873401,-0.08674286
40190,4.8698063,-9.13388,-1.0055647,0.6426302,-0.10873401,-0.08674286
40270,4.8698063,-9.13388,-1.0055647,0.6426302,-0.10873401,-0.08674286
40352,4.8698063,-9.13388,-1.0055647,0.6426302,-0.10873401,-0.08674286
40434,4.8698063,-9.13388,-1.0055647,0.6426302,-0.10873401,-0.08674286
40516,4.8698063,-9.13388,-1.0055647,0.6426302,-0.10873401,-0.08674286
40598,4.8698063,-9.13388,-1.0055647,0.6426302,-0.10873401,-0.08674286
40680,4.8698063,-9.13388,-1.0055647,0.6426302,-0.10873401,-0.08674286
40761,4.8698063,-9.13388,-1.0055647,0.6426302,-0.10873401,-0.08674286
40842,4.8698063,-9.13388,-1.0055647,0.6426302,-0.10873401,-0.08674286
40924,4.8698063,-9.13388,-1.0055647,0.6426302,-0.10873401,-0.08674286
41005,4.8698063,-9.13388,-1.0055647,0.6426302,-0.10873401,-0.08674286
41086,4.8698063,-9.13388,-1.0055647,0.6426302,-0.10873401,-0.08674286
41168,4.8698063,-9.13388,-1.0055647,0.6426302,-0.10873401,-0.08674286
41249,4.8698063,-9.13388,-1.0055647,0.6426302,-0.10873401,-0.08674286
41329,4.8698063,-9.13388,-1.0055647,0.6426302,-0.10873401,-0.08674286
41411,4.8698063,-9.13388,-1.0055647,0.6426302,-0.10873401,-0.08674286
41493,4.8698063,-9.13388,-1.0055647,0.6426302,-0.10873401,-0.08674286
41573,4.8698063,-9.13388,-1.0055647,0.6426302,-0.10873401,-0.08674286
41654,4.8698063,-9.13388,-1.0055647,0.6426302,-0.10873401,-0.08674286
41736,4.8698063,-9.13388,-1.0055647,0.6426302,-0.10873401,-0.08674286
41817,4.8698063,-9.13388,-1.0055647,0.6426302,-0.10873401,-0.08674286
41899,4.8698063,-9.13388,-1.0055647,0.6426302,-0.10873401,-0.08674286
41980,4.8698063,-9.13388,-1.0055647,0.6426302,-0.10873401,-0.08674286
42080,4.8698063,-9.13388,-1.0055647,0.6426302,-0.10873401,-0.08674286
42161,4.8698063,-9.13388,-1.0055647,0.6426302,-0.10873401,-0.08674286
42240,4.8698063,-9.13388,-1.0055647,0.6426302,-0.10873401,-0.08674286
42322,4.8698063,-9.13388,-1.0055647,0.6426302,-0.10873401,-0.08674286
42404,4.8698063,-9.13388,-1.0055647,0.6426302,-0.10873401,-0.08674286
42485,4.8698063,-9.13388,-1.0055647,0.6426302,-0.10873401,-0.08674286
42567,4.8698063,-9.13388,-1.0055647,0.6426302,-0.10873401,-0.08674286
42647,4.8698063,-9.13388,-1.0055647,0.6426302,-0.10873401,-0.08674286
42729,4.8698063,-9.13388,-1.0055647,0.6426302,-0.10873401,-0.08674286
42811,4.8698063,-9.13388,-1.0055647,0.6426302,-0.10873401,-0.08674286
42892,4.8698063,-9.13388,-1.0055647,0.6426302,-0.10873401,-0.08674286
42973,4.8698063,-9.13388,-1.0055647,0.6426302,-0.10873401,-0.08674286
43051,4.8698063,-9.13388,-1.0055647,0.6426302,-0.10873401,-0.08674286
43132,4.8698063,-9.13388,-1.0055647,0.6426302,-0.10873401,-0.08674286
43214,4.8698063,-9.13388,-1.0055647,0.6426302,-0.10873401,-0.08674286
43295,4.8698063,-9.13388,-1.0055647,0.6426302,-0.10873401,-0.08674286
43376,4.8698063,-9.13388,-1.0055647,0.6426302,-0.10873401,-0.08674286
43457,4.8698063,-9.13388,-1.0055647,0.6426302,-0.10873401,-0.08674286
43538,4.8698063,-9.13388,-1.0055647,0.6426302,-0.10873401,-0.08674286
43619,4.8698063,-9.13388,-1.0055647,0.6426302,-0.10873401,-0.08674286
43699,4.8698063,-9.13388,-1.0055647,0.6426302,-0.10873401,-0.08674286
43781,4.8698063,-9.13388,-1.0055647,0.6426302,-0.10873401,-0.08674286
43863,4.8698063,-9.13388,-1.0055647,0.6426302,-0.10873401,-0.08674286
43945,4.8698063,-9.13388,-1.0055647,0.6426302,-0.10873401,-0.08674286
44025,4.8698063,-9.13388,-1.0055647,0.6426302,-0.10873401,-0.08674286
44132,4.8698063,-9.13388,-1.0055647,0.6426302,-0.10873401,-0.08674286
44212,4.8698063,-9.13388,-1.0055647,0.6426302,-0.10873401,-0.08674286
44291,4.8698063,-9.13388,-1.0055647,0.6426302,-0.10873401,-0.08674286
44372,4.8698063,-9.13388,-1.0055647,0.6426302,-0.10873401,-0.08674286
44452,4.8698063,-9.13388,-1.0055647,0.6426302,-0.10873401,-0.08674286
44533,4.8698063,-9.13388,-1.0055647,0.6426302,-0.10873401,-0.08674286
44614,4.8698063,-9.13388,-1.0055647,0.6426302,-0.10873401,-0.08674286
44694,4.8698063,-9.13388,-1.0055647,0.6426302,-0.10873401,-0.08674286
44775,4.8698063,-9.13388,-1.0055647,0.6426302,-0.10873401,-0.08674286
44856,4.8698063,-9.13388,-1.0055647,0.6426302,-0.10873401,-0.08674286
44938,4.8698063,-9.13388,-1.0055647,0.6426302,-0.10873401,-0.08674286
45020,4.8698063,-9.13388,-1.0055647,0.6426302,-0.10873401,-0.08674286
45099,4.8698063,-9.13388,-1.0055647,0.6426302,-0.10873401,-0.08674286
45180,4.8698063,-9.13388,-1.0055647,0.6426302,-0.10873401,-0.08674286
45261,4.8698063,-9.13388,-1.0055647,0.6426302,-0.10873401,-0.08674286
45343,4.8698063,-9.13388,-1.0055647,0.6426302,-0.10873401,-0.08674286
45423,4.8698063,-9.13388,-1.0055647,0.6426302,-0.10873401,-0.08674286
45502,4.8698063,-9.13388,-1.0055647,0.6426302,-0.10873401,-0.08674286
45583,4.8698063,-9.13388,-1.0055647,0.6426302,-0.10873401,-0.08674286
45664,4.8698063,-9.13388,-1.0055647,0.6426302,-0.10873401,-0.08674286
45744,4.8698063,-9.13388,-1.0055647,0.6426302,-0.10873401,-0.08674286
45825,4.8698063,-9.13388,-1.0055647,0.6426302,-0.10873401,-0.08674286
45907,4.8698063,-9.13388,-1.0055647,0.6426302,-0.10873401,-0.08674286
45988,4.8698063,-9.13388,-1.0055647,0.6426302,-0.10873401,-0.08674286
46068,4.8698063,-9.13388,-1.0055647,0.6426302,-0.10873401,-0.08674286
46167,4.8698063,-9.13388,-1.0055647,0.6426302,-0.10873401,-0.08674286
46248,4.8698063,-9.13388,-1.0055647,0.6426302,-0.10873401,-0.08674286
46327,4.8698063,-9.13388,-1.0055647,0.6426302,-0.10873401,-0.08674286
58540,4.8698063,-9.13388,-1.0055647,0.6426302,-0.10873401,-0.08674286
58658,1.4460979,3.6415808,8.710106,0.28588495,-0.103847094,0.02565634
58742,1.4389153,3.691859,8.882488,-0.015882496,0.0036651916,0.0012217305
58819,1.4915876,3.7828386,8.736442,-0.030543262,-0.02443461,0.0012217305
58896,1.4053963,3.5745432,8.736442,-0.004886922,0.014660766,0.021991149
58973,1.5035586,3.679888,8.76996,-0.02321288,-0.0036651916,0.0012217305
59051,1.5801731,3.7086184,8.767567,0.0012217305,0.0036651916,0.014660766
59129,1.5059528,3.6391866,8.7771435,-0.002443461,0.0012217305,0.007330383
59231,1.4796166,3.7062242,8.693346,-0.017104227,-0.002443461,-0.015882496
59312,1.4556746,3.7493198,8.678981,-0.007330383,0.002443461,-0.012217305
59395,1.5466543,3.8043866,8.726865,0.014660766,0.0036651916,-0.007330383
59475,1.4460979,3.6703112,8.6334915,-0.002443461,-0.010995574,-0.007330383
59560,1.5059528,3.7612908,8.765172,0.02443461,-0.0036651916,0.0012217305
59640,1.5275006,3.7301662,8.714894,0.0061086523,-0.002443461,0.0012217305
59721,1.42455,3.6774938,8.765172,0.0036651916,-0.009773844,-0.004886922
59798,1.496376,3.9983168,8.669404,0.05009095,-0.02076942,-0.030543262
