t,ax,ay,az,gx,gy,gz
1764918347198,-3.940856,-3.4332852,7.989451,0.008552114,-0.013439035,0.013439035
1764918347251,-3.7110126,-3.406949,7.93199,0.002443461,-0.019547688,0.010995574
1764918347304,-3.7708676,-3.394978,8.0684595,-0.007330383,0.028099801,0.004886922
1764918347357,-3.8498764,-3.3901896,8.056489,0.002443461,-0.029321533,0
1764918347409,-3.6990416,-3.3686419,8.09719,0.002443461,-0.02687807,-0.004886922
1764918347462,-3.7900212,-3.4380736,8.14268,0,0.004886922,-0.010995574
1764918347515,-3.916914,-3.4931402,8.204929,0.012217305,-0.009773844,-0.017104227
1764918347569,-3.9695864,-3.3877954,8.111555,0.018325957,-0.02076942,-0.015882496
1764918347624,-4.050989,-3.4021606,8.018182,0.019547688,-0.02443461,-0.012217305
1764918347678,-3.9624038,-3.2800562,7.965509,0.009773844,-0.004886922,-0.008552114
1764918347730,-3.8474822,-3.3327289,7.9702973,0.0036651916,-0.007330383,-0.008552114
1764918347783,-3.7852328,-3.3662477,8.12592,-0.0036651916,0.019547688,-0.013439035
1764918347835,-4.096479,-3.3039982,8.183381,0.015882496,-0.008552114,-0.02443461
1764918347904,-4.074931,-3.4835634,8.104373,0.032986723,-0.089186326,-0.015882496
1764918347958,-4.237737,-3.5194764,8.343793,0.02565634,-0.095294975,-0.009773844
1764918348011,-4.060566,-3.3159695,8.288726,0.040317107,-0.2003638,-0.0012217305
1764918348063,-3.8857894,-3.3806129,8.101978,0.047647487,-0.14049901,0.018325957
1764918348115,-3.7349546,-3.371036,8.295909,0.030543262,-0.081855945,0.02565634
1764918348167,-3.6727054,-3.3494883,8.274361,0.037873644,-0.13439035,0.019547688
1764918348223,-3.371036,-3.3063924,8.149862,0.04153884,-0.18692477,0.007330383
1764918348277,-3.4404678,-3.2609026,8.288726,0.030543262,-0.15027285,-0.013439035
1764918348329,-3.3901896,-3.289633,8.291121,0.02565634,-0.081855945,-0.02321288
1764918348382,-3.526659,-3.3207579,8.7125,0.021991149,-0.018325957,-0.028099801
1764918348434,-3.3279405,-3.1603463,8.913613,0.05131268,0.02076942,-0.04886922
1764918348490,-3.2225955,-3.277662,9.069236,0.07941248,-0.07452556,-0.073303826
1764918348544,-3.2632968,-3.181894,8.724471,0.105068825,-0.02443461,-0.07819075
1764918348596,-3.4763808,-3.107674,8.51857,0.09407325,0.095294975,-0.06963864
1764918348649,-3.5218706,-3.3159695,8.6813755,0.09285152,0.12095132,-0.05497787
1764918348701,-3.7588966,-3.4117374,8.822633,0.119729586,0.07086037,-0.052534413
1764918348754,-4.321534,-3.0693667,8.300697,0.1966986,-0.23457226,-0.010995574
1764918348806,-4.3263226,-2.6791117,8.374918,0.19303341,-0.17470746,0.035430185
1764918348861,-3.8067808,-3.0095115,8.662222,0.18570304,-0.14294247,0.07941248
1764918348913,-3.727772,-2.765303,9.44752,0.22235495,-0.105068825,0.1600467
1764918348965,-3.2202013,-2.4468741,9.500193,0.26267207,-0.32742378,0.16249016
1764918349017,-3.2872388,-2.3702598,9.504981,0.27122417,0.0061086523,0.17959438
1764918349072,-1.0941502,-2.4756045,11.070788,0.37995818,0.0061086523,0.14660765
1764918349126,-1.4413095,-2.9161377,11.906365,0.52290064,-0.05009095,0.014660766
1764918349178,-3.775656,-0.7278373,9.773131,0.68539083,-0.33353242,-0.13439035
1764918349231,-1.6472107,-1.3335704,10.287885,0.6267477,-0.47403142,-0.019547688
1764918349283,-1.7860745,-1.7477672,10.623073,0.6792821,-0.5839872,-0.07574729
1764918349335,-1.8435353,-1.1683705,8.183381,0.6914995,-0.8173377,-0.1685988
1764918349391,-1.7860745,-0.18195933,7.3885064,0.54244834,-0.4728097,-0.16737708
1764918349447,-3.7900212,-1.0534488,12.220005,0.50701815,-0.45204028,-0.1600467
1764918349499,-1.7549498,-0.05746084,9.296685,0.6230826,-0.49602258,-0.05009095
1764918349552,-2.5210943,0.7517793,10.682928,0.5155703,-0.2883284,-0.19058995
1764918349604,-1.4556746,0.2896984,10.749966,0.5729916,-0.13683382,-0.087964594
1764918349659,-0.93613285,0.3878607,11.544841,0.61453044,-0.2932153,-0.1160644
1764918349712,-4.0773253,1.1587936,12.567164,0.7489208,0.04642576,-0.05009095
1764918349765,-1.6496049,0.30166942,12.5743475,0.8381071,0.06352998,0.05009095
1764918349818,-4.3143516,1.5825673,16.402676,0.96761054,-0.1685988,-0.010995574
1764918349880,-4.2521024,-0.9816227,23.585281,1.7067575,-0.5852089,0.24556783
1764918349932,-2.7724855,-0.8882488,24.784777,2.212554,0.21013765,0.34574974
1764918349984,-2.3894134,-2.681506,24.042574,2.7232373,0.32375857,0.46181414
1764918350037,0.32561144,-4.656722,17.427395,3.6248744,0.34574974,0.47403142
1764918350091,1.6041151,-6.265626,13.192051,3.9278636,-0.51923543,0.376293
1764918350144,2.7222073,-7.273585,8.911219,4.0903535,-0.17837265,0.21991149
1764918350196,2.8275523,-10.606314,2.6839,4.206418,-0.042760566,0.058643065
1764918350248,1.5131354,-11.413159,-0.074220255,4.191757,0.71593404,0.10751228
1764918350301,1.1013328,-9.176975,-4.6495395,4.1001277,0.58276546,0.10751228
1764918350353,1.8483237,-4.88896,-11.11149,3.739717,0.23090707,0.059864793
1764918350406,1.8579005,-3.8857894,-13.041217,3.426954,0.5131268,0.028099801
1764918350460,0.38307226,-3.107674,-12.528857,3.0665436,0.47036624,0.059864793
1764918350515,2.15957,-3.1387985,-12.466608,2.4813347,0.28099802,-0.0061086523
1764918350568,3.1268275,-2.9879637,-12.9167185,2.235767,0.087964594,-0.1001819
1764918350620,2.4636335,-2.2744915,-14.611813,1.9779817,0.31764993,-0.19547687
1764918350674,4.8626237,-1.2066777,-23.867796,1.3158038,0.073303826,-0.29565877
1764918350727,3.6822822,-1.661576,-32.228348,0.6658431,-0.59864795,-0.4642576
1764918350780,0.8643068,-3.4452562,-38.04147,-0.2761111,-0.57910025,-0.516792
1764918350832,-0.78529817,-10.953473,-44.06528,-2.814867,-1.4575244,-0.3323107
1764918350886,-1.1540052,-21.516691,-41.805157,-4.2137485,-1.6114625,-0.009773844
1764918350938,0.6919243,-33.229126,-37.62009,-5.4916787,-2.0207422,0.37018433
1764918350991,2.6719291,-59.534218,-21.6364,-7.516086,-2.5411994,1.3304645
1764918351046,7.726089,-70.37517,-10.790668,-8.053647,-3.018896,1.9694295
1764918351100,9.634268,-74.04787,6.129156,-8.2808895,-1.5894713,2.4569001
1764918351152,22.754494,-42.169075,61.997852,-6.541145,-0.7281514,2.430022
1764918351205,28.340166,-16.232687,74.56981,-4.316374,-0.3213151,1.6358972
1764918351258,21.068975,-2.0015526,68.05518,-1.9682078,0.41538838,0.75991637
1764918351315,12.878411,5.116409,63.25481,1.2534955,0.54000485,-0.38973203
1764918351367,11.329363,-3.8307228,62.124744,2.7403414,1.0592403,-0.53023106
1764918351420,10.70687,-19.965248,56.09375,4.3493605,0.9944886,-0.66339964
1764918351472,5.710171,-49.62462,27.626694,7.1752234,1.9694295,-0.3811799
1764918351524,4.024653,-54.745815,8.063671,7.7164497,1.2095132,-0.057421334
1764918351580,4.0198646,-55.006783,-1.9847932,7.756767,1.1582005,0.16126843
1764918351633,4.996699,-46.68693,-15.729905,7.1055846,1.0848967,0.50823987
1764918351684,6.600814,-40.6727,-23.628376,6.522819,1.4587462,0.6792821
1764918351736,6.517017,-32.776623,-33.14533,5.7091465,0.45204028,0.61819565
1764918351789,11.377247,-12.569559,-54.271763,2.783102,0.4129449,0.35308012
1764918351843,13.584701,-8.042124,-59.52943,0.95172805,-0.4166101,-0.080634214
1764918351895,12.878411,-8.554482,-62.222908,-0.9993755,-0.5045747,-0.5009095
1764918351953,3.6750996,-32.84366,-49.825733,-5.039638,-1.6468927,-0.8063421
1764918352006,5.374983,-48.561592,-38.86747,-6.6022315,-2.147802,-0.50579643
1764918352058,4.673482,-61.868565,-24.574087,-7.7115626,-2.389705,-0.09040806
1764918352110,4.5418005,-77.49792,-2.4636335,-8.598539,-2.9431489,1.1459832
1764918352164,11.844116,-78.44363,6.634333,-8.517905,-2.6890287,2.0402899
1764918352216,13.314156,-71.70873,24.887726,-8.1648245,-1.8887954,2.2174408
1764918352271,27.48783,-25.945963,63.62591,-5.263215,-1.391551,1.8924606
1764918352324,28.242002,-7.9367785,70.3608,-3.3609805,-0.54733527,1.2681563
1764918352378,24.890121,0.6536171,67.535645,-1.5283848,0.88086766,0.5766568
1764918352432,16.816874,-3.7565024,62.392895,1.9181169,0.8491027,-0.70005155
1764918352485,12.11466,-13.36204,55.804054,3.4538321,1.0690142,-0.9663888
1764918352538,10.649409,-25.335442,47.170563,4.9052477,1.6383406,-0.9786061
1764918352590,4.771644,-50.005295,23.822308,6.9699726,1.858252,-0.6206391
1764918352643,4.177882,-55.176773,11.602302,7.492873,1.518611,-0.26145032
1764918352696,5.7269306,-58.65555,5.2528787,7.7262235,0.8356637,-0.17348573
1764918352752,3.6942532,-56.24698,-8.860941,7.5417423,1.2889256,0.21502456
1764918352805,2.8419175,-53.184795,-14.274231,7.1984363,1.5577064,0.54367006
1764918352857,4.501099,-48.396393,-19.519926,6.7476177,1.1618657,0.8185594
1764918352915,12.155362,-26.755203,-53.45534,4.800179,0.42760566,0.7672467
1764918352972,12.658144,-19.172768,-64.48064,3.0164526,0.17104226,0.34574974
1764918353025,11.9374895,-9.880871,-72.58022,0.8258898,-0.10629055,-0.036651913
1764918353079,10.225636,-28.076803,-57.829548,-4.02438,-1.1679744,-0.675617
1764918353133,7.824251,-44.8003,-44.67341,-5.9046235,-1.3671165,-0.7464773
1764918353190,4.63278,-67.909134,-18.748993,-8.1012945,-1.491733,-0.28588495
1764918353242,3.095703,-73.3727,-9.9550905,-8.5276785,-2.2809708,0.10751228
1764918353296,6.4858923,-77.34708,-4.1659107,-8.695056,-3.3060026,0.9077458
1764918353352,17.120935,-73.377495,14.901511,-8.326094,-3.5332446,2.048842
1764918353404,17.611748,-60.812725,38.87944,-7.585725,-0.95417154,2.3066273
1764918353456,23.757664,-37.124493,52.16247,-6.1086526,-2.0207422,2.0207422
1764918353508,25.335442,-5.3678,63.30748,-2.7403414,-0.21991149,0.9969321
1764918353560,22.720974,2.7006595,61.47113,-1.0409144,0.17959438,0.3408628
1764918353618,22.847866,2.1571758,59.309166,0.37018433,0.31398472,-0.21991149
1764918353671,21.777658,-10.793061,52.05713,3.037222,0.53023106,-1.1032226
1764918353723,20.269312,-23.276428,47.76911,4.384791,1.4294246,-1.5161675
1764918353775,14.554352,-39.420532,37.80684,5.6969295,2.2479842,-1.6505579
1764918353829,6.409278,-55.811237,13.661315,7.484321,2.026851,-1.0384709
1764918353882,5.81791,-60.750473,4.8338933,7.78731,2.3835962,-0.6389651
1764918353936,2.9113493,-61.411274,-4.63278,7.8764963,2.2797492,0.037873644
1764918353989,6.145916,-53.986855,-13.160927,7.253414,1.2999213,0.625526
1764918354042,5.580884,-46.98142,-26.33143,6.681644,1.4978416,0.9101892
1764918354095,9.392453,-36.90901,-36.332012,5.759238,0.93584555,0.86620694
1764918354148,14.15452,-16.852785,-63.168617,2.7574458,-0.36163223,0.34330627
1764918354201,14.817715,-10.055647,-69.89872,0.6230826,-0.056199603,-0.17104226
1764918354255,14.061147,-11.942278,-72.69275,-1.8216002,-0.5900958,-0.7012733
1764918354308,6.0118403,-52.04516,-52.37795,-6.4482937,-1.5992452,-0.97005403
1764918354360,3.6655228,-75.12286,-43.347023,-8.186816,-1.9975294,-0.61086524
1764918354418,8.8777,-78.44363,-27.583597,-9.480629,-2.7769935,0.07452556
1764918354473,10.87207,-78.44363,1.5873557,-10.080499,-3.811799,1.4330899
1764918354525,13.448231,-78.44363,25.98427,-9.817826,-0.62796944,2.1270328
1764918354578,19.92694,-78.44363,47.927128,-8.508131,-3.4440582,2.1820107
1764918354630,27.971458,-20.745758,67.62183,-4.351804,-0.874759,1.7263051
1764918354690,27.63627,-4.654328,66.33614,-2.5680776,-0.5693264,0.9944886
1764918354748,18.859127,1.7621324,60.137558,0.44593164,0.3555236,-0.2883284
1764918354802,19.428947,-1.3000516,56.972424,1.8387043,1.028697,-0.6389651
1764918354855,15.950171,-9.28232,52.598217,3.1300735,1.5149459,-0.9272934
1764918354908,13.924677,-38.857895,37.581783,5.7946677,2.5680776,-1.1032226
1764918354960,8.693346,-49.114655,24.353819,6.8074822,2.9651399,-0.82833326
1764918355012,7.374141,-55.555058,10.407595,7.420791,2.1087067,-0.4569272
1764918355069,0.58657944,-52.801723,-5.535394,7.479434,2.2870796,0.5717699
1764918355122,4.369418,-46.586376,-14.8512335,7.1703362,0.6291912,0.90408057
1764918355174,4.537012,-38.589745,-18.713081,6.482502,1.2596041,1.1362094
1764918355226,5.997475,-25.55571,-27.617117,4.849048,0.06352998,1.0140363
1764918355278,6.7971387,-22.115242,-31.3401,3.76293,-0.096516706,0.7098254
1764918355335,5.1140146,-15.45936,-41.96557,2.8930578,-0.6658431,0.50579643
1764918355390,4.2161894,-7.089231,-60.295574,0.07452556,-0.112399206,-0.036651913
1764918355442,3.0023289,-11.417948,-60.70259,-1.8338175,-1.7922786,-0.2003638
1764918355495,0.5482722,-24.174255,-57.9325,-3.7739255,-1.2571607,-0.04153884
1764918355547,1.7238252,-56.491188,-37.15083,-7.029837,-2.2944098,0.6010914
1764918355599,0.62009823,-72.017586,-22.266075,-8.081747,-1.3487904,1.1252137
1764918355658,2.9233203,-78.44363,-8.221688,-8.607091,-2.3530529,1.6224581
1764918355710,12.179304,-78.44363,19.258959,-8.272337,-2.0708332,2.2944098
1764918355764,20.211851,-64.64105,27.528532,-7.442782,-1.8594738,2.733011
1764918355826,26.745626,-24.736893,58.77047,-5.1642547,-1.6163495,1.717753
1764918355879,24.59324,-10.953473,62.979477,-3.4245105,-0.014660766,1.1068878
1764918355933,24.147919,-1.7262194,65.33537,-1.881465,-0.20525073,0.31642818
1764918355989,13.292608,2.087744,57.70026,1.2241739,0.8686504,-0.48991394
1764918356041,11.647791,-0.28491,54.221485,2.4239132,1.1459832,-0.6450737
1764918356094,17.47049,-13.139379,51.05635,3.5369098,0.7623598,-0.9651671
1764918356146,10.594342,-43.612778,35.01041,6.147748,2.819754,-0.89919364
1764918356199,7.03177,-54.302887,22.287624,7.090924,2.7892108,-0.5839872
1764918356256,3.5290532,-58.54302,9.605537,7.6162677,2.8808405,0.030543262
1764918356308,3.7852328,-53.974884,-6.351817,7.442782,0.24923302,0.39584067
1764918356360,4.453215,-51.549557,-10.529699,7.1410146,0.12583824,0.32986724
1764918356412,6.471527,-47.204082,-18.921375,6.787935,0.8185594,0.33475417
1764918356467,5.616797,-30.739155,-39.94007,4.982217,-0.02443461,0.1881465
1764918356523,5.092467,-21.188684,-50.503292,3.8899899,0.32498032,0.056199603
1764918356576,1.4867992,-14.784196,-61.246075,2.1587977,0.40439278,-0.02565634
1764918356629,3.028665,-14.872781,-63.276356,-2.565634,-0.3726278,-0.34574974
1764918356681,1.6160861,-29.980194,-55.411404,-4.7293186,-1.2241739,-0.3115413
1764918356737,0.6751649,-50.476955,-43.461945,-6.5521407,-1.4257594,-0.040317107
1764918356793,2.2816741,-78.44363,-19.728222,-8.74759,-1.2815952,0.87109387
1764918356845,2.6623523,-78.44363,-6.8809357,-9.299812,-0.7318166,1.1362094
1764918356898,11.386824,-78.44363,2.0111294,-9.429316,-2.2406538,1.4880677
1764918356955,17.685968,-72.084625,40.54341,-8.126951,-2.8270843,1.8851302
1764918357007,16.378735,-49.421112,60.180653,-6.637662,-2.3652701,1.971873
1764918357060,30.72479,-20.391417,66.91794,-4.6450195,-0.93218035,1.8594738
1764918357112,28.06962,1.3479356,72.32644,-1.0445796,-0.007330383,0.13683382
1764918357165,22.926876,-2.0973208,66.23559,0.79534656,0.9505063,-0.5155703
1764918357218,17.302896,-5.3701944,59.63717,2.366492,0.6389651,-1.0775663
1764918357274,10.596737,-29.522902,40.75171,5.059186,2.1563544,-1.251052
1764918357326,9.251195,-39.142803,31.526848,6.0487876,2.3151793,-1.0311406
1764918357379,8.815451,-48.214436,24.210167,6.745174,2.0427334,-0.86132
1764918357432,5.7724204,-59.615623,6.9168487,7.666359,2.01219,-0.16737708
1764918357485,5.2648497,-60.151924,-0.91937345,7.7750926,0.9944886,-0.047647487
1764918357539,4.903325,-58.511894,-7.335834,7.6651373,1.0836749,0.058643065
1764918357591,2.8275523,-48.391605,-19.931728,6.9247684,0.7965683,0.56688297
1764918357644,3.9240966,-39.6815,-32.71437,6.177069,0.0720821,0.5290093
1764918357697,5.521029,-30.643387,-46.203304,5.0567427,0.047647487,0.4605924
1764918357750,3.335123,-10.680533,-64.62429,1.5125023,-0.267559,0.15149458
1764918357803,0.19153613,-11.310209,-63.63309,-0.6230826,-0.6731735,0.04886922
1764918357858,1.7836803,-16.213533,-59.464787,-2.7293458,-0.95294976,0.013439035
1764918357910,-2.4181437,-46.648624,-35.355175,-6.328564,-1.0592403,0.37018433
1764918357966,-2.3535004,-56.39303,-23.463177,-7.2387533,-0.79412484,0.6792821
1764918358018,-1.2545617,-62.61556,-12.260707,-7.7726493,-0.70005155,0.89919364
1764918358070,1.1468226,-68.792595,1.2114661,-7.897266,-1.971873,1.6285667
1764918358126,11.652579,-66.38882,6.7013707,-7.5356336,-4.0903535,2.4972172
1764918358178,10.771513,-61.62675,17.705122,-7.220427,-0.9431759,2.9321532
1764918358232,25.07208,-34.153286,46.914383,-5.3927183,-1.5858061,2.7415633
1764918358286,30.65536,-16.230293,57.633224,-3.8826594,-0.64751714,2.1991148
1764918358346,31.198843,-2.2409728,60.523026,-2.2883012,-0.36285394,1.3793337
1764918358398,30.380026,3.0262709,59.39775,0.61086524,0.38606682,-0.32375857
1764918358451,28.945898,-3.086126,56.512737,2.003638,0.2932153,-1.078788
1764918358505,18.241423,-27.241226,41.59686,4.641354,2.0659463,-1.921782
1764918358560,11.6669445,-40.471584,32.374397,5.80322,2.0549507,-1.9804251
1764918358613,7.5345526,-51.058746,19.041086,6.7292914,2.234545,-1.7629571
1764918358666,4.3358994,-53.725887,0.20829555,7.352374,1.4477507,-1.0629056
1764918358719,2.540248,-52.042763,-5.6527104,7.265631,1.0616838,-0.8405506
1764918358773,0.2633622,-47.692497,-11.508927,6.995629,1.2412782,-0.5143485
1764918358826,0.9672575,-38.015133,-22.845472,6.015801,0.25045475,-0.24923302
1764918358878,1.6448165,-30.854076,-31.297005,5.367062,-0.43127087,-0.4605924
1764918358930,0.33039984,-23.338678,-43.85459,4.3640213,0.42149702,-0.48624873
1764918358983,-4.1683054,-9.105149,-58.112064,1.2547172,-0.82711154,-0.3933972
1764918359035,-8.760384,-9.323022,-64.07602,-0.65240407,-0.29932398,-0.16371189
1764918359089,-9.141062,-17.791313,-63.041725,-3.2742376,-1.2217305,0.3005457
1764918359147,-7.6494746,-56.93172,-50.402733,-6.6278877,-1.9914207,1.4990633
1764918359199,-1.1372458,-78.44363,-33.954567,-8.316319,-2.204002,2.4141395
1764918359252,3.667917,-78.44363,-17.779343,-9.120218,-2.017077,3.0799825
1764918359304,20.63802,-78.44363,15.665261,-9.217957,-0.96761054,4.174653
1764918359359,28.548462,-78.44363,43.21534,-8.492249,-2.252871,3.8081338
1764918359413,34.093433,-53.08424,65.993774,-6.649879,-0.8332202,3.4807103
1764918359467,38.594532,-5.434838,66.29545,-2.3774874,0.057421334,1.5577064
1764918359519,31.141382,1.6160861,63.913216,-0.7464773,-0.02321288,0.5216789
1764918359571,27.7895,2.801216,58.51429,0.7733554,0.6084218,-0.12461651
1764918359624,22.31396,-11.987768,44.850582,3.2742376,0.93828905,-1.282817
1764918359676,21.748928,-22.771252,38.939297,4.327369,0.8491027,-1.7263051
1764918359729,17.166426,-35.992035,30.48537,5.3682837,2.0207422,-1.9498819
1764918359781,7.4004774,-47.98938,9.452309,6.839247,1.3903292,-1.7348573
1764918359833,4.8961425,-48.891994,1.4317327,6.994407,0.75869465,-1.7299703
1764918359886,2.255338,-46.030922,-5.161899,6.9162164,0.81000733,-1.6383406
1764918359939,0.58418524,-42.449196,-7.4004774,6.637662,0.6939429,-1.4880677
1764918359993,0.60094464,-38.869865,-14.69561,6.0219097,0.79045963,-1.3365731
1764918360046,-0.62967503,-36.20033,-22.481554,5.6773815,1.3353515,-1.1154399
1764918360100,-4.0222588,-31.35686,-35.247437,5.099503,1.3732251,-0.8735373
1764918360151,-5.8107276,-12.717999,-54.561462,2.5815165,-0.19425514,-0.2321288
1764918360203,-6.009446,-6.090849,-58.8399,0.7538077,0.03176499,0.012217305
1764918360255,-8.11395,-9.018958,-58.96919,-1.2571607,-0.91874135,0.23457226
1764918360307,-7.2448545,-33.11181,-47.94389,-4.849048,-1.3487904,1.1093313
1764918360359,-6.505046,-47.915157,-41.24252,-6.2357125,-1.536937,1.5833627
1764918360414,-4.915296,-63.02736,-32.07991,-7.360926,-1.1533136,2.1087067
1764918360468,4.307169,-78.44363,-9.457097,-8.471479,-2.6499333,3.368311
1764918360520,11.547235,-78.44363,2.0709844,-8.263785,-2.058616,3.885103
1764918360572,24.918852,-78.44363,14.542381,-7.784867,-2.542421,4.1856484
1764918360631,35.355175,-41.467575,54.743423,-5.64073,-1.5968018,3.3585372
1764918360683,40.39497,-18.80885,60.93004,-3.7861428,-0.59986967,2.5546384
1764918360736,37.569813,-5.985504,63.939552,-2.107485,-0.02321288,1.5076154
1764918360788,34.49566,2.0278888,56.33317,0.77213365,0.44959682,-0.2932153
1764918360847,31.347282,-4.996699,50.362034,2.0549507,0.47769663,-1.033584
1764918360901,29.640217,-14.918271,45.652637,3.1789427,0.49846604,-1.7458528
1764918360954,18.119318,-39.343918,29.506142,5.39394,1.9278907,-2.565634
1764918361007,11.262324,-48.09712,20.341137,6.2650337,2.485,-2.3909266
1764918361064,6.2728086,-53.792923,1.448492,7.0750413,1.772731,-1.717753
1764918361117,3.6248214,-52.636524,-3.5098996,7.1092496,1.4892895,-1.4856243
1764918361169,1.9608512,-50.443436,-9.148245,7.006624,1.251052,-1.2498302
1764918361222,0.79008657,-41.817127,-21.097706,6.338338,-0.12705997,-1.0665708
1764918361276,-2.1883004,-36.0064,-30.921116,5.7054815,1.187522,-0.9651671
1764918361329,-7.041347,-26.434381,-40.347088,4.8246136,0.96761054,-0.49357912
1764918361383,-3.9839516,-10.996569,-55.042698,2.1991148,0.7086037,-0.25411993
1764918361436,-9.6845455,-6.0980315,-60.95877,0.4642576,-0.45081854,-0.13439035
1764918361488,-7.78355,-8.1402855,-60.139954,-1.536937,-0.92485,0.23579398
1764918361542,-5.3582234,-33.31771,-46.658203,-5.0921726,-1.4880677,1.0567969
1764918361595,-4.4340615,-48.252743,-37.11731,-6.350555,-1.0922271,1.46852
1764918361648,-4.3047748,-60.75526,-26.812664,-7.2216487,-1.6102408,1.8081611
1764918361700,4.9440265,-75.9345,-8.734048,-7.7714276,-2.271197,3.1215215
1764918361752,9.801862,-78.44363,-0.6536171,-7.706676,-2.6963592,3.6114354
1764918361805,16.910246,-77.047806,8.985439,-7.411017,-1.3817772,4.053702
1764918361860,22.778435,-60.4512,31.371225,-6.8477993,-1.5601498,3.7189476
1764918361914,36.81564,-21.902157,53.72828,-4.382347,-0.52778757,2.3273966
1764918361967,33.147724,-11.386824,57.987564,-2.973692,0.46181414,1.3744467
1764918362021,24.598028,-0.04309563,56.814407,-0.13194689,0.5534439,-0.13194689
1764918362074,20.84871,-1.6112977,53.64448,1.1520919,0.49968776,-0.6365216
1764918362130,19.438524,-6.8330517,50.17289,2.3774874,0.6805039,-0.9663888
1764918362185,17.922995,-27.796682,37.411797,4.601037,1.409877,-1.5625933
1764918362237,15.916653,-37.68713,26.556486,5.606521,1.6187929,-1.6859881
1764918362289,13.819332,-44.32146,18.152838,6.2222733,1.5381587,-1.781283
1764918362343,7.989451,-51.092266,1.2521675,6.8966684,1.5296066,-1.645671
1764918362403,4.999093,-49.32295,-4.268862,6.908886,1.396438,-1.5222762
1764918362455,2.858677,-47.137043,-8.710106,6.767165,1.5809193,-1.2840388
1764918362507,0.15562311,-40.51947,-17.372328,6.208834,1.6872098,-0.6658431
1764918362563,-0.44532153,-37.672764,-24.574087,5.8276544,1.070236,-0.4007276
1764918362619,-2.0374656,-19.64682,-48.152184,4.083023,0.8063421,-0.010995574
1764918362671,-2.0278888,-9.883265,-57.293247,2.5448647,0.015882496,0.073303826
1764918362723,-1.8363527,-6.619968,-60.022636,0.63407815,-0.39950588,0.11484267
1764918362782,-4.474763,-18.332403,-56.38345,-3.2779028,-1.1203269,0.35430184
1764918362833,-3.857059,-33.399113,-47.04846,-5.018869,-1.2852604,0.7086037
1764918362884,-3.7900212,-48.791435,-37.701492,-6.373768,-1.2815952,1.105666
1764918362938,-1.9919758,-60.5757,-26.774357,-7.371922,-1.105666,1.5015068
1764918362991,2.9879637,-77.18188,-6.871359,-8.306545,-1.5589281,2.2736404
1764918363046,5.681441,-78.44363,-0.050278235,-8.388402,-0.83199847,2.5558603
1764918363100,22.950817,-56.258953,46.971844,-7.3816957,-0.6927212,2.2956316
1764918363152,22.409727,-31.26588,58.966793,-5.7348027,-0.7892379,1.65911
1764918363204,24.413675,-13.39077,55.650826,-4.01705,1.282817,1.1081096
1764918363258,13.713987,-6.069301,45.34618,-2.71102,1.8399261,0.20158553
1764918363312,3.040636,-2.1906946,28.8214,-0.88086766,1.3219124,-0.65484756
1764918363364,-4.3766007,-1.5729905,23.175873,-0.33108896,0.93828905,-0.7086037
1764918363418,-7.8027034,0.35673606,19.098547,0.09896017,-0.28955013,-0.4642576
1764918363470,-2.8203697,-0.9504981,13.345281,0.43860126,-0.32375857,0.2773328
1764918363523,-1.4820108,-1.2114661,11.96622,0.52778757,-0.44715336,0.3726278
1764918363576,-0.8690952,-0.7086837,11.0061455,0.6035349,-0.79779,0.35185838
1764918363631,-0.033518825,0.37349546,9.399636,0.6414085,-0.42760566,0.3652974
1764918363684,0.8643068,0.6584055,8.78672,0.643852,-0.49357912,0.35430184
1764918363738,1.745373,1.127669,7.9272017,0.5571091,-0.23823744,0.32986724
1764918363790,2.3008277,1.4030021,7.6135616,0.5021312,-0.1160644,0.30787608
1764918363841,2.2266076,1.6807296,7.66384,0.43493605,-0.02321288,0.28344148
1764918363893,2.018312,1.6950948,7.73806,0.3933972,-0.12217305,0.24801129
1764918363945,2.1404164,2.3295584,7.9631147,0.2932153,-0.1160644,0.25289822
1764918363998,2.4301147,2.255338,7.9487495,0.28099802,-0.33353242,0.23945917
1764918364051,2.9017725,2.2697031,8.147469,0.23457226,-0.16371189,0.25411993
1764918364104,3.5529952,2.4492683,8.228871,0.19181168,-0.13561209,0.1685988
1764918364158,3.4883518,2.5689783,8.461109,0.16249016,0.05497787,0.13805555
1764918364210,3.8762126,2.695871,8.078036,0.16249016,-0.18325958,0.059864793
1764918364262,3.4715924,2.7629087,7.9870567,0.080634214,-0.07086037,-0.02076942
1764918364317,3.3375173,2.942474,7.9272017,0.05375614,-0.059864793,-0.043982297
1764918364370,2.8514943,2.7581203,8.590396,0.010995574,0.06963864,-0.05131268
1764918364422,2.870648,2.7964275,8.0924015,0.019547688,-0.0842994,-0.07941248
1764918364475,2.7748797,2.5474305,8.101978,-0.013439035,0.09040806,-0.06841691
1764918364528,2.542642,2.825158,8.14268,-0.035430185,-0.02076942,-0.089186326
1764918364579,2.492364,2.7820623,8.4347725,-0.09285152,0.096516706,-0.07086037
1764918364631,2.516306,2.695871,8.3868885,-0.10140363,-0.032986723,-0.080634214
1764918364682,2.542642,2.6479871,8.461109,-0.1282817,0.039095376,-0.0720821
1764918364733,2.4995465,2.5091233,8.75799,-0.13805555,0.096516706,-0.06963864
1764918364787,2.3989902,2.4133554,9.083601,-0.13805555,0.004886922,-0.080634214
1764918364839,2.0757728,2.4181437,9.0716305,-0.12705997,0.073303826,-0.07086037
1764918364891,1.9153614,2.3535004,9.150639,-0.11728613,0.10262536,-0.05009095
1764918364943,1.9560628,2.4636335,9.083601,-0.09773844,0.010995574,-0.030543262
1764918364995,2.147599,2.3582888,9.229648,-0.103847094,0.09896017,-0.0012217305
1764918365048,2.2385786,2.1930888,9.212888,-0.09040806,0.032986723,-0.009773844
1764918365101,2.0326772,2.267309,9.301474,-0.080634214,0.02076942,-0.0036651916
1764918365154,2.1068976,2.147599,9.165004,-0.073303826,-0.002443461,-0.0012217305
1764918365206,2.219425,2.2601264,9.344569,-0.06841691,0.013439035,0.008552114
1764918365260,2.954445,2.0829554,9.947908,-0.042760566,0.061086524,-0.019547688
1764918365312,3.787627,1.9057846,10.443508,0,-0.05131268,-0.095294975
1764918365366,3.4213142,2.2720973,10.795456,0.036651913,0.21135938,-0.16982053
1764918365420,2.0709844,2.585738,10.840945,0.14905111,0.23457226,-0.2846632
1764918365472,1.5346833,2.4899697,10.84334,0.22968534,0.20158553,-0.25045475
1764918365525,0.15801731,2.0925324,12.188881,0.37873647,-0.48258355,-0.1881465
1764918365578,3.8067808,2.0901382,8.954314,0.3921755,0.16737708,-0.10262536
1764918365635,4.27365,5.118803,9.291897,0.30787608,0.4605924,-0.20891592
1764918365688,-0.90261406,4.072537,17.798496,0.3042109,-0.24923302,-0.30176744
1764918365740,6.14831,4.5034933,22.316355,0.6927212,-0.312763,-0.34697145
1764918365793,7.9152308,3.5697548,26.1375,1.1191051,-0.16371189,-0.4801401
1764918365846,9.636662,1.9033904,29.40319,1.6481144,0.043982297,-0.70738196
1764918365903,9.528923,-8.111555,30.834923,3.0604348,0.8894198,-1.073901
1764918365955,9.737218,-15.507244,28.63944,3.8484511,1.0519099,-1.2009611
1764918366008,10.038888,-22.12003,23.075315,4.658458,1.3133603,-1.2962561
1764918366062,5.872977,-31.426292,5.0493712,5.828876,1.8680259,-1.1716396
1764918366114,2.6048915,-31.974564,-2.1308396,6.0182443,2.0830505,-0.90408057
1764918366167,1.0702082,-31.20842,-6.979098,5.9999185,1.8154916,-0.59742624
1764918366221,0.16759412,-28.294676,-17.908628,5.494122,0.7819075,-0.07574729
1764918366274,-0.21787235,-24.128765,-25.359385,4.967556,0.8552113,0.08552113
1764918366327,0.04309563,-18.83758,-34.340034,4.206418,0.6951646,0.24556783
1764918366380,1.6639702,-6.4667387,-52.880733,1.6957619,-0.3494149,0.23701571
1764918366434,0.5267244,-4.6806645,-54.475273,0.07941248,-0.1282817,0.13439035
1764918366487,-2.918532,-8.37013,-55.35873,-1.6285667,-0.9334021,0.089186326
1764918366544,-4.309563,-28.785486,-41.515457,-4.845383,-1.5906931,0.689056
1764918366596,-3.229778,-41.39814,-31.069555,-5.9424973,-1.749518,1.1325442
1764918366648,-1.3192052,-49.99572,-19.993979,-6.6559877,-1.0555751,1.5650368
1764918366701,3.8235402,-58.966793,0.5626374,-7.260744,-2.3102922,2.1539109
1764918366754,7.405266,-54.20712,8.3629465,-7.071376,-2.4984388,2.574186
1764918366808,17.518373,-53.912632,18.06425,-6.4934974,-2.823419,3.068987
1764918366861,29.154194,-25.380932,51.784187,-4.7635274,-1.0433578,2.4507914
1764918366913,26.618734,-9.916783,54.511185,-3.0799825,0.2565634,1.7311921
1764918366967,26.159048,0.8762778,53.81926,-1.5906931,-0.0012217305,0.90041536
1764918367023,23.015461,4.9679685,47.8984,0.84299403,0.27488935,-0.2565634
1764918367075,22.845472,-1.3239936,48.635815,1.9046779,0.53023106,-0.75625116
1764918367127,20.087353,-8.987833,41.25449,3.0934217,1.3267993,-1.1239921
1764918367180,12.263102,-26.18299,24.499866,4.950452,1.5479325,-1.690875
1764918367232,8.305486,-30.20046,14.84405,5.529552,1.7275269,-1.6468927
1764918367286,4.8602295,-32.755074,9.351752,5.87408,1.2327261,-1.536937
1764918367339,1.4341269,-32.79817,-2.8514943,6.0353484,1.6285667,-1.0348058
1764918367391,2.0326772,-31.68247,-6.181829,5.8618627,1.1716396,-0.8576548
1764918367443,0.2801216,-30.178913,-6.196194,5.594304,1.0946705,-0.6914995
1764918367498,2.6503813,-28.88365,-15.823279,5.2363367,0.52412236,-0.45204028
1764918367552,0.8475474,-26.733656,-22.019472,4.8710394,0.81489426,-0.47525316
1764918367611,0.11252748,-22.079329,-33.73909,4.34203,0.66339964,-0.3555236
1764918367663,-2.456451,-7.053318,-54.594982,1.8606955,-0.10873401,-0.25045475
1764918367715,-3.5865142,-5.2026005,-57.786453,0.105068825,-0.4361578,-0.17470746
1764918367768,-5.097255,-7.843405,-55.703495,-1.754405,-1.0714576,-0.0012217305
1764918367822,-8.377312,-33.59065,-40.871418,-4.8014007,-1.600467,0.8943067
1764918367876,-4.06296,-43.581654,-32.139763,-5.828876,-1.9657644,1.5125023
1764918367928,-0.08140286,-52.064312,-23.281218,-6.5704665,-2.1160371,2.0390682
1764918367982,4.292804,-64.01856,-4.8482585,-7.263188,-1.3451253,2.8576276
1764918368034,6.8785415,-65.761536,1.6304513,-7.285179,-0.5681047,2.9981265
1764918368091,9.991004,-63.496624,16.259024,-7.1410146,-0.8894198,2.823419
1764918368144,24.46156,-26.934769,49.33492,-5.508783,-0.6059783,2.2247713
1764918368197,27.657818,-12.72997,58.404156,-4.0634756,-0.8698721,1.5552629
1764918368250,21.990742,-2.908955,60.341064,-2.493552,0.11728613,0.8918633
1764918368311,19.249382,4.501099,57.02031,0.41905355,0.36041048,-0.15515977
1764918368363,16.620548,0.6584055,55.291695,1.8216002,0.38362336,-0.5009095
1764918368416,14.623784,-16.587029,40.34948,4.2540655,0.9126327,-1.0958922
1764918368469,14.7554655,-28.009766,30.147787,5.1874676,0.86009824,-1.3732251
1764918368523,9.706094,-35.707123,19.665974,5.865528,1.6297885,-1.4501941
1764918368577,4.012682,-40.749313,2.8275523,6.5338144,1.3219124,-1.1142182
1764918368630,4.477157,-40.636784,-1.9776106,6.5167103,0.9114109,-1.0128145
1764918368682,2.2146366,-39.805996,-5.932832,6.3835416,0.9896017,-0.87109387
1764918368736,-0.22266077,-33.935413,-14.817715,5.8679714,0.9578367,-0.47036624
1764918368788,0.22026655,-29.98977,-20.580557,5.415931,0.20158553,-0.41172317
1764918368842,0.095768064,-24.957159,-34.70635,4.806288,0.41172317,-0.376293
1764918368900,-2.885013,-9.667787,-54.87989,2.2785273,-0.058643065,-0.15271631
1764918368957,-2.3678656,-5.5282116,-60.31952,0.5009095,-0.21624629,-0.04642576
1764918369015,-4.8362875,-7.5465236,-61.372967,-1.4709635,-0.72082096,0.13683382
1764918369067,-4.3047748,-33.947388,-47.390827,-5.067738,-1.7763962,1.0421361
1764918369119,-2.753332,-48.276684,-36.341587,-6.361551,-1.9779817,1.5430456
1764918369182,0.18435353,-68.9961,-13.244724,-7.5808377,-2.2773056,2.7953193
1764918369234,4.309563,-74.608116,-5.9807158,-7.623598,-2.9969049,3.426954
1764918369287,10.216059,-75.82676,2.2026656,-7.484321,-0.6230826,4.0365977
1764918369341,21.815966,-57.566185,34.268208,-6.6217794,0.26511553,3.835012
1764918369395,27.729645,-36.28173,48.47061,-5.4819045,-1.7397442,3.128852
1764918369448,40.478767,-21.808783,57.939682,-4.05248,-0.6291912,2.670703
1764918369500,39.861065,-0.12689269,60.803146,-0.7415904,-0.15271631,0.5119051
1764918369553,35.02238,0.46686932,55.327606,0.81489426,0.312763,-0.3811799
1764918369607,30.652964,-4.687847,47.896004,2.043955,0.9101892,-1.0274754
1764918369660,25.912445,-24.760834,34.78775,4.0695844,0.72692966,-2.2602015
1764918369713,17.946936,-34.44538,24.72492,4.8857,1.8399261,-2.5607471
1764918369765,12.133814,-37.68713,15.998055,5.4843483,1.8423696,-2.5583036
1764918369819,3.8139634,-44.12274,5.0421886,6.41042,1.6933185,-2.244319
1764918369872,1.4676456,-44.043736,-2.0350714,6.623001,1.709201,-1.9339994
1764918369928,-0.08379706,-41.59686,-7.539341,6.53748,1.8704693,-1.4905112
1764918369981,-1.4700398,-35.54671,-14.652514,5.8765235,1.5784758,-0.6072
1764918370033,-0.91458505,-30.969,-19.656397,5.4440312,1.3891076,-0.23335053
1764918370086,-0.7350199,-26.621128,-25.297134,4.8588223,1.1472049,-0.0012217305
1764918370138,2.1140802,-15.693993,-43.490673,3.2070425,0.5839872,0.30543262
1764918370192,0.90500826,-8.255207,-55.167194,1.9743165,-0.21624629,0.15515977
1764918370244,-0.0047884034,-4.7524905,-57.29564,0.23945917,-0.21013765,0.09896017
1764918370297,-1.5945383,-18.813637,-55.140858,-3.5674531,-1.409877,0.43371433
1764918370350,-4.158728,-36.169205,-48.82735,-5.23145,-1.3842206,0.7867944
1764918370402,-3.6990416,-51.25507,-39.597702,-6.597345,-1.4367551,1.2241739
1764918370454,3.095703,-73.999985,-13.785813,-8.191703,-2.125811,2.389705
1764918370507,5.5138464,-78.44363,-2.5354595,-8.18926,-2.3371704,2.7782152
1764918370560,12.976573,-78.44363,5.8921304,-7.882605,-1.7922786,3.3304374
1764918370615,25.349808,-50.5416,43.0669,-6.546032,-0.49357912,2.8722885
1764918370667,27.320236,-30.901962,52.121773,-5.2534413,-0.453262,2.1331415
1764918370719,27.442339,-15.5599165,59.859833,-3.657861,-0.87598073,1.486846
1764918370774,17.848774,1.2856863,53.33084,-0.83077675,0.0061086523,0.5119051
1764918370827,18.679562,2.6001031,47.656586,0.2932153,-0.35918877,0.1685988
1764918370879,22.761675,-0.021547815,47.718834,1.2754866,0.12583824,-0.16493362
1764918370935,22.275652,-13.160927,40.054993,3.2840116,0.15271631,-1.078788
1764918370988,23.47036,-23.913286,33.07111,4.274835,0.9639453,-1.505172
1764918371041,18.112135,-33.56192,27.691338,5.0982814,1.8374827,-1.8081611
1764918371098,8.7053175,-45.240837,9.198523,6.4287457,2.1661282,-1.5479325
1764918371151,3.4476504,-45.822628,2.1284454,6.7928214,2.0024164,-1.1985176
1764918371205,1.0486604,-45.896847,-3.9360676,6.972416,1.0983357,-0.9101892
1764918371260,2.4396915,-35.94894,-22.244528,6.437298,0.50335294,-0.9651671
1764918371314,-2.408567,-26.597187,-30.272285,5.5161133,1.4844025,-0.6963864
1764918371367,-0.7781156,-21.329943,-35.73346,4.565607,0.53878313,-0.5839872
1764918371419,-6.385336,-6.6510925,-45.93276,2.140472,0.24312437,-0.17837265
1764918371472,-7.1849995,-4.8123455,-42.33667,0.8173377,-1.5137241,-0.008552114
1764918371524,-7.9607205,-4.6782703,-44.299915,-0.4288274,-1.7910569,0.30176744
1764918371578,-9.380483,-14.417883,-39.98556,-2.9394836,-1.7592919,1.2131784
1764918371632,-8.506598,-22.570139,-36.44454,-4.0231586,-1.8387043,1.7250835
1764918371685,-6.7229185,-32.40552,-28.718449,-4.8905873,-2.0867157,2.2540927
1764918371738,-2.4468741,-49.955017,-15.500062,-6.0548964,-1.1716396,3.3035593
1764918371790,0.5243302,-56.79286,-8.949526,-6.367659,-1.9120082,3.6713002
1764918371844,7.9990277,-59.93884,-1.7932571,-6.4128633,-1.5076154,4.1856484
1764918371900,25.617958,-45.899242,34.624947,-6.0939918,-0.15271631,3.8081338
1764918371953,27.528532,-31.407139,46.078804,-5.0433035,0.26633725,2.9712486
1764918372006,37.998375,-15.59583,52.251057,-3.5931094,-1.8680259,2.0622811
1764918372060,32.671276,0.45250413,53.673214,-0.6243043,-0.05009095,0.45814893
1764918372117,27.521349,1.7908629,48.307808,0.66950834,0.5522222,-0.18081611
1764918372172,28.692114,0.40222588,44.256817,1.6676621,0.02321288,-0.816116
1764918372228,28.289886,-18.198328,35.161247,3.5185838,1.0042624,-2.021964
1764918372283,23.415293,-26.949135,27.02096,4.3676863,1.9853121,-2.443461
1764918372335,11.674128,-36.913803,10.9582615,5.4586916,2.2162192,-2.5411994
1764918372387,8.6813755,-43.32308,5.60722,5.911954,1.8570304,-2.470339
1764918372439,3.9911342,-44.141895,-0.23702596,6.2124996,1.577254,-2.289523
1764918372496,1.6663644,-39.62404,-8.870518,6.073222,1.2241739,-1.8839084
1764918372552,-1.4580688,-36.518757,-13.098678,5.880189,1.8167132,-1.4465289
1764918372605,-3.2393548,-33.164482,-20.195091,5.6370645,1.3341297,-1.1386528
1764918372657,-7.965509,-21.303606,-39.418137,4.2540655,0.5448918,-0.6462954
1764918372711,-8.588001,-13.304579,-50.151344,3.0860913,0.5839872,-0.35308012
1764918372763,-10.316615,-6.145916,-56.563015,1.5027285,-0.49357912,-0.15271631
1764918372817,-12.162544,-9.854534,-57.468025,-2.3286183,-0.66828656,0.6560693
1764918372869,-11.48738,-22.788012,-49.897556,-4.05248,-1.5760323,1.1838568
1764918372922,-9.478644,-37.330395,-40.236954,-5.3841662,-1.958434,1.8423696
1764918372974,-3.6583402,-59.965176,-19.553446,-6.8062606,-2.4446826,3.1716123
1764918373028,1.8938135,-67.8828,-12.282255,-6.9907417,-2.4410176,3.8606684
1764918373084,5.719748,-73.28172,-3.8833952,-7.067711,-1.4538593,4.414112
1764918373137,23.57331,-66.06321,19.9437,-6.459289,-0.5742133,4.8698177
1764918373189,33.348835,-48.717216,38.522705,-5.644395,-2.324953,4.225966
1764918373242,47.194504,-27.703308,49.07395,-3.980398,-1.4318681,3.585779
1764918373295,45.432373,-0.92176765,52.557514,-1.2925909,-0.548557,1.1728612
1764918373349,39.49475,-0.9600749,50.237534,0.012217305,0.52412236,0.17592919
1764918373403,34.605793,-1.9201498,45.36773,1.174083,0.5510005,-0.6389651
1764918373456,32.848446,-12.708423,36.806065,3.0201178,0.88208944,-1.9022343
1764918373508,30.372843,-25.61317,33.84683,3.9425242,0.9309586,-2.6035078
1764918373560,29.302635,-38.419754,27.48783,4.84294,1.3353515,-3.2143729
1764918373613,11.549629,-57.55182,9.92636,6.486167,2.3322835,-3.5992181
1764918373669,4.608838,-60.360218,1.7070658,6.9931855,1.600467,-3.4526103
1764918373721,1.1563994,-57.17354,-6.2105594,7.1068063,1.672549,-3.104417
1764918373774,-1.8148049,-48.626236,-14.216769,6.695083,1.6151277,-2.0476203
1764918373826,-2.645593,-45.130703,-20.417751,6.425081,1.831374,-1.5393804
1764918373878,-5.197812,-40.30878,-29.819782,5.9681535,1.1203269,-1.2021828
1764918373932,-10.503363,-20.748152,-54.20233,3.8362339,0.8246681,-0.593761
1764918373987,-12.01171,-10.242394,-60.393738,1.9779817,-0.453262,-0.25289822
1764918374039,-12.976573,-7.5968018,-61.028202,-0.12950343,-0.34330627,0.24678956
1764918374092,-9.188946,-25.04335,-49.172115,-4.0146065,-1.2473868,1.2962561
1764918374144,-6.26802,-38.90099,-40.433277,-5.4611354,-1.1447614,1.8106046
1764918374203,-5.0134583,-51.60462,-30.765491,-6.5387015,-1.2742649,2.2174408
1764918374256,1.3623008,-67.29383,-9.155427,-7.425678,-1.9975294,3.3805282
1764918374308,5.195418,-70.279396,-0.7422025,-7.3010616,-2.9150488,3.7543778
1764918374360,12.421119,-63.503807,11.781867,-6.632775,-1.6346754,4.359134
1764918374413,28.33777,-34.93619,41.19703,-4.9565606,-0.61453044,4.0280457
1764918374468,32.266655,-18.01158,36.38468,-3.7885861,-0.7696902,3.1838295
1764918374520,36.655228,-5.530606,42.4899,-2.7904325,-1.1838568,2.4019222
1764918374572,41.762062,6.0621185,50.82172,-0.7049385,0.062308256,0.57787853
1764918374624,38.910564,5.683835,47.445896,0.6010914,0.91507614,-0.4202753
1764918374677,32.731133,1.2521675,45.896847,1.7238617,1.4538593,-1.2473868
1764918374738,23.25967,-22.567745,32.089485,4.0329323,2.026851,-2.3652701
1764918374792,13.5535755,-31.97217,23.223757,4.982217,2.403144,-2.4801128
1764918374844,9.160215,-36.221878,13.972561,5.6602774,2.1734586,-2.3200662
1764918374896,3.787627,-36.54749,0.15083471,6.3578854,0.7684685,-1.7751744
1764918374951,4.8458643,-36.123714,-5.6335564,6.304129,0.5558874,-1.7654005
1764918375003,2.5091233,-34.99844,-7.1107793,6.081774,1.0360274,-1.6859881
1764918375057,-0.50038815,-31.304188,-15.705963,5.362175,1.3988814,-1.2608259
1764918375110,-3.9791632,-28.708872,-21.076157,4.946787,0.028099801,-1.2473868
1764918375167,-5.401319,-24.49747,-36.98802,4.3689084,1.53205,-0.8772025
1764918375219,-9.967062,-9.8042555,-57.427322,1.5674802,-0.453262,-0.2846632
1764918375271,-11.097125,-7.153875,-60.80075,-0.36041048,-0.46303585,0.16493362
1764918375324,-9.727641,-13.302185,-55.588573,-2.3542747,-1.4941764,0.6218608
1764918375377,-6.1650696,-36.24103,-35.058296,-5.2925363,-1.78617,1.6835446
1764918375430,-4.0557775,-45.24323,-24.681826,-6.1184263,-1.8399261,2.1734586
1764918375482,-1.3838485,-52.251057,-15.897499,-6.6401052,-2.1087067,2.761111
1764918375536,5.0781016,-59.524643,-3.3494883,-6.7525043,-1.5711454,3.4550538
1764918375588,12.540829,-59.87659,3.964798,-6.5350366,-2.0818288,3.780034
1764918375640,16.048334,-55.646034,18.86152,-6.432411,-0.11484267,3.7519343
1764918375693,33.85401,-22.996307,49.445053,-4.509407,-0.065973446,2.8979447
1764918375747,34.584244,-9.054871,53.18719,-3.1093042,-0.75991637,1.8521434
1764918375802,32.395943,0.6967127,56.87426,-1.7446312,-0.062308256,1.0421361
1764918375855,21.985954,4.0414124,42.78199,0.82344633,0.267559,-0.4251622
1764918375907,18.962078,0.7398083,33.741486,1.6896533,0.37751472,-0.8136725
1764918375959,16.180016,-1.3599066,27.483042,2.2455406,0.84788096,-1.0042624
1764918376013,15.248671,-12.20564,23.116018,3.19116,2.1734586,-1.3023647
1764918376067,14.152126,-16.505627,22.290018,3.8203511,2.2821925,-1.3121386
1764918376119,14.975732,-23.350649,21.571756,4.5949283,1.4245378,-1.5442673
1764918376172,7.505822,-34.560303,6.682217,5.793446,1.4196508,-1.9547688
1764918376224,2.0614076,-36.566643,-0.830788,6.0219097,1.7189748,-1.8545868
1764918376276,-0.59376204,-35.376724,-6.2105594,6.00114,2.1539109,-1.4807373
1764918376329,-2.2409728,-30.095116,-16.412252,5.507561,2.117259,-0.29565877
1764918376383,-2.2170308,-25.857378,-28.038496,5.109277,1.672549,0.16737708
1764918376437,-2.099715,-18.839973,-35.484463,4.3090434,0.12950343,0.28099802
1764918376491,0.29209262,-4.5178585,-55.332394,1.8961257,0.119729586,0.39095375
1764918376543,0.49081135,-3.2465374,-58.80399,0.15515977,-0.20525073,0.33108896
1764918376595,-0.7733272,-5.7484784,-56.57738,-1.65911,-0.6609562,0.3286455
1764918376653,-2.621651,-27.23165,-38.908173,-4.7403145,-1.8228219,0.8002335
1764918376707,-2.4468741,-37.31124,-29.264328,-5.729916,-1.7959439,1.2351695
1764918376759,-1.055843,-46.143448,-20.578163,-6.400646,-1.7873917,1.6945401
1764918376812,3.5314474,-56.704273,-6.129156,-6.934542,-1.7666223,2.5240953
1764918376864,7.9990277,-60.362614,2.6719291,-6.967529,-1.1154399,2.8893926
1764918376917,11.733982,-56.457672,8.231265,-6.8416905,-1.4025466,2.819754
1764918376975,20.209457,-38.300045,42.70298,-5.3194146,-0.9798279,2.8221974
1764918377027,31.957804,-22.448034,52.131348,-3.9217548,-0.91507614,2.3286183
1764918377080,29.008148,-7.177817,51.051563,-2.4141395,0.58032197,1.609019
1764918377132,27.849354,3.8187518,51.001286,-0.2321288,0.15760323,0.22357668
1764918377190,28.90759,1.4772224,49.54561,0.8210029,0.267559,-0.37751472
1764918377242,29.570786,-4.675876,48.317383,1.971873,0.5045747,-1.0225884
1764918377294,21.554998,-23.97314,35.295322,4.1184535,1.3158038,-2.2088888
1764918377347,17.171215,-34.512417,26.961105,4.9968777,1.8240436,-2.4019222
1764918377400,11.568783,-39.91374,19.694704,5.644395,1.9339994,-2.3860397
1764918377458,8.635885,-46.773125,6.751649,6.486167,1.4208726,-2.1099286
1764918377511,5.8466406,-48.65736,-0.7661445,6.7744956,1.5674802,-1.9828686
1764918377563,2.0398598,-49.74912,-6.667852,6.8844514,1.6542231,-1.7201965
1764918377615,-4.608838,-38.534676,-20.681114,6.3395596,1.3891076,-0.96761054
1764918377667,-4.4484267,-31.74472,-29.44868,5.667608,1.2400564,-0.48991394
1764918377723,-5.3318872,-23.432053,-42.051758,4.6987753,0.73426,-0.19181168
1764918377776,-6.1100025,-7.81228,-59.02904,1.7006488,0.004886922,0.23457226
1764918377828,-6.4547677,-5.159505,-60.142345,-0.24923302,-0.13439035,0.45204028
1764918377882,-6.8210807,-11.3964,-54.05868,-2.180789,-0.6792821,0.6951646
1764918377935,-3.7110126,-31.936256,-35.54671,-5.000543,-1.4062119,1.3720033
1764918377987,-2.6886885,-41.07253,-27.296293,-5.893628,-1.1899655,1.7128662
1764918378041,-1.8411411,-48.985367,-18.981232,-6.546032,-1.0213667,2.0048597
1764918378093,3.6128504,-59.522247,-5.671864,-7.0603805,-1.7971655,2.8026497
1764918378146,5.305551,-60.745686,1.2114661,-7.040833,-1.8216002,3.1813862
1764918378199,11.899182,-60.42965,12.706028,-6.894225,-1.1337659,3.500258
1764918378251,27.432762,-39.868248,41.108444,-5.3194146,-1.1960741,3.911981
1764918378307,35.88669,-24.167072,47.201687,-3.835012,-1.6383406,3.1129694
1764918378360,42.288784,-11.032481,50.385975,-2.2540927,-0.6206391,2.3090706
1764918378412,36.561855,0.8834604,43.189003,0.2321288,-0.06963864,0.21991149
1764918378464,32.23314,-1.721431,39.542637,1.1508701,0.5546656,-0.5155703
1764918378516,29.755138,-3.3614593,37.280113,1.9865338,0.5412266,-1.1068878
1764918378572,27.935545,-20.041862,33.758244,3.6383133,1.1313224,-2.2797492
1764918378625,26.218903,-30.356083,27.186161,4.505742,1.6077974,-2.7281241
1764918378678,20.891804,-39.66953,19.654001,5.2656584,2.2321017,-2.9944615
1764918378730,10.374076,-48.5999,4.1299977,6.2992425,2.20278,-2.878397
1764918378782,6.50744,-50.278236,-1.0606314,6.5558057,2.3628268,-2.6120598
1764918378835,2.6312277,-50.292603,-5.913678,6.7158527,2.6755898,-2.1429152
1764918378892,-0.25139117,-44.390892,-18.456902,6.5753536,2.5399778,-0.86376345
1764918378944,-0.5386954,-39.252937,-28.933928,6.1990604,1.7837266,-0.3811799
1764918378995,-1.9321208,-29.221231,-45.439552,5.404936,1.1191051,-0.089186326
1764918379048,-2.9975405,-6.481104,-61.59084,1.9547688,-0.07574729,0.2003638
1764918379100,-2.3774424,-5.729325,-62.541336,-0.16615535,-0.29443705,0.34697145
1764918379153,-4.1635165,-12.112267,-59.184666,-2.2198844,-0.82344633,0.51068336
1764918379208,-1.0103531,-36.47327,-40.2178,-5.4880133,-1.7470746,1.2205088
1764918379260,-0.16759412,-48.820168,-29.439104,-6.5790186,-1.7751744,1.613906
1764918379312,1.7932571,-59.11763,-19.821596,-7.285179,-1.8167132,1.9828686
1764918379367,3.1603463,-65.61549,-11.252748,-7.663915,-1.1484267,2.3139575
1764918379423,12.842498,-69.88675,4.534618,-7.706676,-2.1160371,2.823419
1764918379477,19.309237,-59.90053,28.830976,-7.3230524,-1.8301523,2.7097983
1764918379528,30.174124,-23.863008,53.069874,-4.7342057,-0.5119051,2.0647244
1764918379581,26.834213,-11.11149,50.80975,-3.1752775,-0.029321533,1.2070698
1764918379633,16.266207,-4.0940847,42.60003,-1.813048,0.5143485,0.52290064
1764918379690,6.811504,0.33039984,23.458387,-0.2406809,0.78801614,0.119729586
1764918379744,4.4580035,2.1045034,14.834474,0.029321533,0.18203785,0.09896017
1764918379797,7.3047094,-0.260968,9.078813,-0.058643065,0.68539083,0.21868975
1764918379848,5.130774,-0.33518824,6.7348895,-0.44226643,-0.25289822,-0.018325957
1764918379900,3.3039982,-0.89303726,8.259995,-0.44837508,-0.14660765,-0.0720821
1764918379953,3.4476504,-0.8858546,8.659827,-0.35185838,-0.7476991,-0.12461651
1764918380011,3.4524388,-2.1883004,8.552089,-0.29565877,-0.535118,-0.09040806
1764918380064,3.751714,-1.6184803,8.566454,-0.35918877,-0.44959682,-0.10751228
1764918380116,4.9105077,-2.2601264,8.89446,-0.41905355,-0.02443461,-0.096516706
1764918380169,5.9783216,-2.0398598,9.16261,-0.40683624,-0.0061086523,-0.19792034
1764918380225,5.8107276,-1.9512744,9.279925,-0.3640757,-0.08552113,-0.30176744
1764918380278,3.976769,-1.4580688,9.397242,-0.3371976,0.019547688,-0.34330627
1764918380330,2.8778305,-1.958457,10.395624,-0.2406809,0.035430185,-0.34574974
1764918380382,2.3104045,-1.9153614,11.03727,-0.23335053,0.17959438,-0.30787608
1764918380435,1.1707647,-1.4269443,11.834539,-0.1563815,0.09162979,-0.26511553
1764918380487,2.6048915,-2.2098482,11.518504,0.02443461,0.013439035,-0.16126843
1764918380546,2.9975405,-2.4109612,10.477027,-0.20891592,1.8044959,-0.1685988
1764918380599,2.0494366,-2.15957,11.087548,-0.18936823,1.6310102,-0.2125811
1764918380656,3.071761,-1.2425907,8.3868885,0.065973446,1.2449434,-0.112399206
1764918380711,0.18435353,-1.8004397,10.010158,0.08674286,0.4605924,-0.17470746
1764918380766,-2.2385786,-1.922544,9.574412,0.09162979,0.95905846,0.037873644
1764918380819,-1.3024458,-2.456451,9.957485,0.13927728,0.043982297,0.064751714
1764918380871,-2.207454,-1.3551182,9.246407,0.16249016,0.44593164,0.23335053
1764918380928,1.7884687,-2.5450363,8.616732,0.27000242,-0.48380527,0.31642818
1764918380980,1.7525556,-1.9129672,7.5824366,0.25045475,-0.059864793,0.28099802
1764918381032,2.1212628,-1.8028339,8.379706,0.17104226,0.20158553,0.25045475
1764918381084,1.757344,-0.6488287,9.011775,0.23701571,-0.12950343,0.06719518
1764918381137,1.2904748,-0.12689269,8.935161,0.22357668,0.042760566,-0.007330383
1764918381192,0.6943185,0.2705448,8.62152,0.19058995,0.047647487,-0.08674286
1764918381248,0.36152446,-0.08619126,9.507375,0.073303826,0.21502456,-0.14294247
1764918381300,0.05267244,-0.1316811,9.44752,0.0842994,0.03176499,-0.1966986
1764918381353,-0.60333884,0.045489833,9.531317,0.06963864,0.23579398,-0.18081611
1764918381405,-0.61770403,-0.2777274,9.31105,0.08307768,0.004886922,-0.14782938
1764918381458,-1.0582372,-0.37828386,9.478644,0.059864793,0.24556783,-0.11484267
1764918381512,-0.82599956,-0.39983168,9.428367,0.04886922,-0.02687807,-0.1160644
1764918381565,-1.2330139,-0.32321724,9.5385,0.012217305,-0.012217305,-0.059864793
1764918381618,-0.60573304,-0.5363012,9.605537,0.004886922,-0.07941248,-0.02443461
1764918381670,-0.39504328,-0.7374141,9.605537,0.010995574,-0.028099801,-0.017104227
1764918381727,-0.5626374,-0.6536171,9.715671,0.004886922,0.065973446,-0.002443461
1764918381780,-0.2681506,-0.63206923,9.497798,0.010995574,-0.2724459,-0.040317107
1764918381832,-0.06943185,-0.7541735,9.816227,0,-0.2761111,-0.064751714
1764918381884,0.81642276,-0.90740246,9.186552,-0.02687807,-0.82344633,-0.12217305
1764918381936,0.9959879,-1.0127473,9.753978,-0.06719518,0.06719518,-0.09162979
1764918381990,-1.5777789,-0.5506664,9.543288,-0.008552114,-0.30665436,-0.17470746
1764918382051,1.2138603,-1.0893618,10.398018,0.015882496,-0.0842994,0.21135938
1764918382104,-0.34476504,0.85473,9.421184,0.05497787,-0.1441642,0.1881465
1764918382158,0.58657944,0.06703765,10.247183,0.029321533,0.05375614,0.29443705
1764918382212,0.2873042,-0.4141969,10.216059,0.15027285,0.07452556,0.35185838
1764918382268,1.3910311,-0.50757074,10.254366,0.17837265,0.21135938,0.42638394
1764918382324,1.8219875,-0.1316811,9.198523,0.30298916,-0.034208454,0.33964106
1764918382376,2.3104045,-0.11492168,8.995016,0.30298916,-0.22357668,0.29077184
1764918382431,2.9400797,0.11252748,8.760384,0.27855456,-0.16615535,0.23823744
1764918382484,3.5458126,-0.009576807,9.672575,0.1563815,0.41172317,0.02321288
1764918382536,1.99437,0.62967503,9.018958,0.2125811,-0.0061086523,-0.118507855
1764918382588,1.271321,0.7254431,8.288726,0.19914207,-0.15515977,-0.17470746
1764918382644,0.8810662,0.04070143,8.1163435,0.039095376,-0.007330383,-0.172264
1764918382699,-0.009576807,0.059855044,9.227253,-0.030543262,0.23090707,-0.14172074
1764918382751,-0.5722142,-0.04070143,9.832987,-0.028099801,0.039095376,-0.12217305
1764918382806,-0.7038953,0.20350714,9.361329,0.0012217305,-0.16737708,-0.009773844
1764918382860,0.038307227,0.14604631,9.514558,-0.0012217305,-0.25045475,0.02687807
1764918382914,0.35194764,0.2801216,9.751583,0.018325957,-0.47891834,0.019547688
1764918382966,0.46208093,0.50278234,9.610326,0.018325957,-0.12095132,0.087964594
1764918383018,1.1779473,0.35194764,10.115502,0.028099801,-0.07819075,0.12705997
1764918383071,1.8914193,0.4213795,9.662998,0.030543262,0.13805555,0.13439035
1764918383123,2.2601264,0.40462008,9.969456,0.02321288,0.45081854,0.105068825
