t,ax,ay,az,gx,gy,gz
1764918347197,-4.7860093,5.6646814,6.169858,-0.065973446,-0.035430185,0
1764918347248,-4.7644615,5.779603,5.9902925,0.008552114,-0.029321533,-0.008552114
1764918347299,-4.7668557,5.6790466,5.9902925,-0.035430185,-0.0061086523,-0.009773844
1764918347353,-4.876989,5.6239796,6.131551,0.032986723,0.05009095,0.012217305
1764918347407,-4.9105077,5.6120086,6.327875,0.0012217305,0.05009095,0.008552114
1764918347458,-4.8722005,5.683835,6.4739213,0.019547688,0.032986723,0.010995574
1764918347509,-5.279215,5.8083334,6.667852,-0.07819075,-0.018325957,0.012217305
1764918347560,-5.0134583,5.681441,6.528988,-0.036651913,-0.096516706,0.0036651916
1764918347611,-4.996699,5.60722,6.3470287,0.013439035,-0.12950343,-0.02443461
1764918347668,-5.056554,5.60722,6.169858,0.021991149,-0.16737708,-0.05497787
1764918347720,-5.6551046,4.9224787,6.43322,0.19792034,-0.23579398,-0.15882497
1764918347774,-5.509058,5.494693,6.315904,0.32986724,-0.61453044,-0.44959682
1764918347834,-6.1746464,5.6431336,6.9719152,0.5644395,-0.9236283,-0.65240407
1764918347918,-5.542577,6.0860605,7.00304,0.5021312,-1.3035865,-0.9224065
1764918347970,-4.6351743,5.671864,6.301539,0.19425514,-1.5015068,-0.93951076
1764918348022,-4.7788267,5.7604494,7.3430166,0.53878313,-1.4795157,-0.893085
1764918348074,-3.383007,5.657499,6.483498,0.019547688,-1.46852,-0.7538077
1764918348137,-3.0478187,6.0022635,6.775591,0.18936823,-1.2925909,-0.64996064
1764918348201,-2.4995465,5.8825536,6.5122285,0.21746802,-0.94806284,-0.47769663
1764918348252,-1.8195933,5.755661,6.471527,-0.004886922,-0.72204274,-0.35918877
1764918348305,-2.0757728,5.647922,6.5146227,0.07941248,-0.4642576,-0.24556783
1764918348358,-1.7597382,5.875371,6.7253127,0.036651913,-0.21624629,-0.14538592
1764918348415,-2.0254946,5.770026,7.017405,0.058643065,-0.042760566,0.0061086523
1764918348474,-2.0590134,5.920861,7.0365586,-0.02687807,0.052534413,0.058643065
1764918348527,-2.3463178,5.638345,7.5704656,0.042760566,0.061086524,0.1001819
1764918348580,-2.9640217,5.389348,7.728483,-0.11728613,0.105068825,0.20891592
1764918348638,-4.1946416,4.1515455,8.207323,-0.7330383,-0.010995574,0.30665436
1764918348697,-4.987122,2.9041667,8.564059,-2.026851,-0.44715336,0.41050145
1764918348757,-4.5418005,0.34237084,8.264784,-3.2400293,-1.2486086,0.46181414
1764918348816,-2.2050598,0.076614454,7.4627266,-4.646241,-1.6236799,0.6963864
1764918348880,1.5682021,-2.492364,6.291962,-4.9309044,-1.346347,1.2803736
1764918348937,3.3494883,-5.6790466,4.4603977,-5.3658404,-0.8210029,2.6511552
1764918348991,3.3734303,-6.6295447,4.249708,-5.6639423,-0.09407325,2.8112018
1764918349046,1.6496049,-12.459426,4.924873,-6.8697906,0.95417154,2.2858577
1764918349100,1.8435353,-10.201694,-1.4532804,-6.0280185,1.269378,1.1044444
1764918349162,-0.02633622,-12.454638,-2.908955,-5.71892,1.0323622,0.15882497
1764918349227,-1.2593501,-12.789825,-5.841852,-4.206418,0.6377433,-0.029321533
1764918349279,-2.2601264,-10.043676,-4.1659107,-3.345098,-0.6768387,-0.40317106
1764918349336,-2.585738,-7.074866,-7.005434,-0.46303585,-0.79901177,-0.010995574
1764918349390,-3.0095115,-7.043741,-7.491457,1.921782,-0.1600467,0.2687807
1764918349445,-0.89782566,-6.483498,-6.4906807,-0.2321288,-0.3408628,-0.41905355
1764918349500,-3.976769,-8.717288,-7.410054,2.1087067,-0.4007276,0.009773844
1764918349558,-3.8355112,-5.590461,-7.3789296,0.53023106,-0.23945917,0.20891592
1764918349613,-2.8395233,-7.359776,-5.695806,1.3817772,-0.15515977,0.010995574
1764918349668,-2.4301147,-8.698134,-4.673482,0.30665436,-0.040317107,-0.6450737
1764918349720,-2.1068976,-8.9519205,-5.044583,0.5852089,-0.22235495,-0.56688297
1764918349777,-2.695871,-8.276755,-5.4803276,0.21135938,-0.087964594,-0.36285394
1764918349830,-1.5729905,-7.5106106,-6.155493,0.6768387,0.25167647,0.02565634
1764918349889,-0.9768343,-8.872911,-4.2880154,1.9193386,-0.06352998,0.017104227
1764918349942,-2.066196,-12.864046,-3.5122938,1.6261233,0.21991149,-0.40194935
1764918349996,-1.5011644,-12.093113,-0.9696517,2.008525,-0.12339478,-0.66828656
1764918350049,-0.055066638,-14.729129,0.19632454,1.7128662,0.06963864,-1.3341297
1764918350105,0.7733272,-14.053964,1.6496049,2.1368067,-0.16126843,-1.8594738
1764918350161,0.5626374,-16.04594,0.31124622,1.740966,0.07819075,-1.9926424
1764918350228,0.37828386,-11.650186,1.2282255,2.189341,-0.3323107,-2.3445008
1764918350282,0.8571242,-8.504205,2.873042,2.660929,-0.46303585,-2.3212879
1764918350336,2.44448,-8.863335,4.2401314,2.4263568,-0.50946164,-2.0598376
1764918350391,3.0238767,-7.9583263,4.63278,2.4691174,-0.49846604,-1.926669
1764918350446,2.741361,-7.005434,3.3686419,2.3970351,-0.5448918,-1.9193386
1764918350504,3.9839516,-5.2744265,3.9360676,2.0842721,-0.49968776,-1.9865338
1764918350559,3.5936968,-2.183512,3.406949,1.9388863,-0.3408628,-1.9230038
1764918350613,3.6703112,-0.08140286,4.1491513,1.7434094,-0.26145032,-1.6371188
1764918350665,5.046977,0.92416185,3.4237084,1.4587462,-0.47647488,-1.3096951
1764918350726,5.9519854,2.4971523,3.0669725,1.3573426,-0.30176744,-0.9126327
1764918350788,5.4420204,5.0062757,1.115698,0.38606682,-0.17348573,-0.30909783
1764918350847,5.815516,4.8386817,1.0534488,-0.36041048,0.32986724,0.7452556
1764918350908,3.514688,2.1930888,-0.8283938,-1.9474384,1.351234,1.3891076
1764918350962,2.8802247,0.7541735,0.076614454,-2.8319712,1.6224581,2.0500638
1764918351015,1.1109096,-5.2026005,0.59615624,-4.736649,1.5650368,2.8393016
1764918351077,-0.80924016,-10.6398325,2.4588451,-5.76779,1.5076154,3.0140092
1764918351129,-1.3479356,-12.483368,1.1204864,-4.5888195,0.75869465,2.9443705
1764918351189,-1.2856863,-14.322115,-1.8938135,-6.200282,0.6365216,2.324953
1764918351272,-0.33758244,-12.950237,0.023942016,-2.7940977,-0.96883225,1.6077974
1764918351326,1.352724,-23.16869,0.45968673,-0.032986723,-0.66706485,0.8417723
1764918351378,1.7046716,-24.660278,-2.15957,0.7012733,-0.8136725,-0.49235737
1764918351431,2.6001031,-18.179174,-1.5059528,2.4446826,-0.50701815,-1.9572122
1764918351486,1.9057846,-17.24783,0.37588966,3.2265902,-0.4092797,-2.8099802
1764918351553,3.8833952,-15.507244,2.6623523,4.5216246,-0.70616025,-3.3646457
1764918351607,0.58418524,-13.797785,3.2992098,4.460538,-0.9737192,-3.5979962
1764918351660,0.47644615,-9.935937,2.006341,4.2907176,-1.2412782,-3.7934732
1764918351713,-0.15083471,-6.5577183,0.5530606,3.7287214,-1.2327261,-3.6932912
1764918351770,1.079785,-0.29209262,2.4037786,3.6700783,-1.3109168,-3.4147367
1764918351823,-0.35434186,4.4125137,-3.4141316,3.0164526,-0.7464773,-2.4691174
1764918351878,2.207454,10.168175,-3.25372,1.717753,-0.056199603,-1.0384709
1764918351932,2.8658595,8.90643,-1.8363527,-0.009773844,0.88208944,0.7012733
1764918351992,1.6376339,1.910573,-2.2409728,-2.3359487,1.6224581,1.6835446
1764918352048,2.1619642,0.09816227,1.1372458,-3.3915238,2.1331415,2.3151793
1764918352110,1.5658079,-7.216124,-0.94570965,-5.7054815,1.3060299,3.2485814
1764918352162,-0.6991069,-8.750807,2.1092918,-5.626069,1.1313224,3.2754595
1764918352214,-1.7860745,-12.63899,-0.51475334,-4.84294,1.187522,3.1569517
1764918352288,-0.39743748,-16.112978,4.841076,-5.3059754,0.33353242,2.5008824
1764918352341,2.4229321,-18.289307,-2.1883004,-4.393343,-0.2932153,2.0134118
1764918352393,0.28491,-20.013132,-2.1787236,-1.5613716,-0.52290064,0.9737192
1764918352446,3.6391866,-20.915747,-3.347094,0.056199603,-0.625526,0.0842994
1764918352500,1.292869,-19.440918,-3.5314474,1.7446312,-0.408058,-1.028697
1764918352555,3.2800562,-19.503166,-0.6823475,3.604105,-0.16371189,-2.2797492
1764918352612,2.801216,-16.01242,0.05267244,4.4666467,-0.16371189,-3.2241468
1764918352664,2.8874073,-15.796943,0.6368576,4.802623,-0.037873644,-3.4697146
1764918352717,1.3072342,-12.136209,2.3104045,4.6132545,-0.08674286,-3.313333
1764918352778,0.9600749,-9.727641,2.801216,4.8844786,-0.9761627,-3.3719761
1764918352833,0.40222588,-7.00304,0.33518824,3.7653735,-1.7324139,-3.717726
1764918352888,0.9720459,-0.6943185,1.7788919,4.1233406,-1.6481144,-3.676187
1764918352943,0.91458505,4.343082,-0.28491,3.7030652,-1.1814134,-3.0983086
1764918352996,1.6400281,12.576741,-3.277662,2.6890287,-0.7330383,-1.8875736
1764918353049,2.1906946,13.96059,-6.155493,0.79412484,-0.25289822,-0.33841935
1764918353103,-0.8690952,8.317456,-6.397307,-0.675617,1.2425,1.1826351
1764918353159,0.15562311,4.63278,-2.4588451,-2.879619,1.9449949,2.307849
1764918353222,1.7118542,-2.5785553,1.0319009,-4.582711,1.7947221,3.0995302
1764918353301,1.7764976,-8.688558,3.8283286,-6.599788,1.102001,3.2754595
1764918353358,3.5458126,-11.640609,1.1827357,-5.149594,0.70249504,3.1496212
1764918353413,2.2146366,-9.200917,2.1332338,-5.9180627,0.6597345,3.413515
1764918353467,0.92895025,-14.369999,2.7724855,-4.817283,0.17104226,2.8209758
1764918353520,1.316811,-15.38514,-1.4700398,-3.7274997,-0.4202753,2.3090706
1764918353581,2.066196,-16.96292,-2.8443117,-1.9022343,-0.62796944,1.2754866
1764918353641,2.7269957,-22.275652,-5.60722,0.05375614,-0.38362336,0.14049901
1764918353697,2.0757728,-21.832726,-3.5314474,1.17897,-0.31520647,-0.6988298
1764918353750,2.743755,-17.195156,-1.6639702,2.8160887,0.19181168,-1.9156734
1764918353806,2.4995465,-13.953407,-0.37828386,3.8240163,-0.4166101,-2.702468
1764918353871,5.0014873,-14.901511,2.7748797,4.9797735,-0.23090707,-3.4379497
1764918353923,3.1364043,-14.767436,-2.4349031,4.3114867,-0.7489208,-3.5259142
1764918353985,1.1540052,-7.6710224,1.70946,4.5045204,-0.90285885,-3.6187658
1764918354042,0.8475474,-4.1635165,-0.6799533,3.540575,-0.9419542,-3.63587
1764918354097,0.35913026,2.0254946,1.0773908,3.6615262,-0.95294976,-3.3267722
1764918354150,-0.9792285,5.233725,-2.1380222,3.7641516,-0.63529986,-2.6328292
1764918354209,3.1292217,12.993333,-3.1196449,2.0317378,-0.111177474,-1.1508701
1764918354266,0.7517793,10.251971,-4.900931,0.17959438,0.88208944,0.93218035
1764918354327,0.19393034,3.7445314,-2.7150247,-1.7605137,1.740966,2.0598376
1764918354382,0.40462008,-2.3702598,-1.2066777,-3.9156463,2.080607,2.9907963
1764918354442,1.5801731,-5.995081,1.6831238,-5.13982,2.3225098,3.2143729
1764918354496,1.3838485,-8.133103,4.644751,-5.7922244,1.3695599,3.6688566
1764918354549,-1.1683705,-14.551958,-1.3503298,-5.8643064,1.0995574,3.4636059
1764918354605,-3.6631286,-12.648567,2.992752,-7.1923275,0.4654793,3.3414328
1764918354662,-0.1412579,-15.19121,1.2856863,-5.3426275,-0.0720821,2.783102
1764918354715,-2.3391352,-18.648438,-1.6472107,-3.0115657,-0.3481932,2.1025982
1764918354768,0.59615624,-21.080946,-3.3207579,-0.3494149,-0.73548174,1.0506883
1764918354825,2.8634653,-22.129606,-2.6503813,0.55955255,-0.62796944,-0.43004912
1764918354882,1.8962077,-21.62922,-1.3239936,2.483778,-0.46792278,-1.1166617
1764918354937,2.6623523,-18.315643,0.30885202,3.19116,-0.3933972,-2.406809
1764918354996,0.7278373,-13.898341,1.5634137,4.575381,-0.66828656,-3.097087
1764918355049,0.6536171,-13.721169,1.4628572,4.0011673,-1.3988814,-3.395189
1764918355109,1.0079589,-12.01171,-0.62009823,2.928488,-1.3329079,-3.3622024
1764918355172,1.745373,-8.101978,1.0199299,1.7910569,-0.9053023,-3.5918877
1764918355225,-1.4987702,-2.0159178,-2.7748797,3.5271358,-0.54367006,-4.0610323
1764918355278,0.50038815,-2.1547816,1.2378023,3.1569517,-0.5045747,-3.9779544
1764918355331,0.92655605,8.784326,-0.79966336,3.0091221,-0.69027776,-3.2070425
1764918355387,2.1404164,12.119449,1.4700398,1.5112807,-0.35918877,-1.7299703
1764918355441,3.691859,11.233594,-0.545878,0.6230826,-0.21380283,-0.46792278
1764918355495,3.7301662,9.679757,-1.7166426,-1.351234,0.91507614,1.1007792
1764918355548,-1.2330139,5.2265425,1.4413095,-2.3176227,1.8228219,2.5192082
1764918355605,-0.5770026,1.1444284,0.40701428,-4.094019,1.7788396,3.3169982
1764918355676,-0.30166942,-7.979874,2.4037786,-4.382347,1.1496484,4.0292673
1764918355727,2.5713725,-8.248025,-0.39504328,-3.8631117,0.63041294,3.8508945
1764918355779,-2.2888567,-9.085996,-2.2481554,-5.0152035,0.6365216,3.997502
1764918355832,-0.06464344,-14.300567,4.865018,-3.1435125,0.2406809,3.602883
1764918355892,0.92176765,-19.129671,-0.6895301,-4.4409904,0.19058995,2.3237314
1764918355947,-4.5753193,-20.51352,0.6368576,-2.13925,-0.064751714,2.2235496
1764918356002,1.946486,-19.25417,-2.6479871,-0.48991394,-0.5534439,0.4569272
1764918356055,1.6328455,-25.246857,-3.58412,1.0714576,-0.6462954,-0.4642576
1764918356110,0.16280572,-22.63239,0.8283938,2.1587977,-0.172264,-2.0744984
1764918356174,0.5243302,-14.250289,0.6392518,3.9596286,-0.7831292,-3.0482175
1764918356230,0.4285621,-12.636597,2.2098482,4.8295007,-0.97127575,-3.7299433
1764918356283,2.456451,-13.101071,0.9528923,4.4067817,-1.1679744,-3.4379497
1764918356341,-0.19632454,-12.811374,1.4652514,3.1569517,-1.0323622,-3.8154643
1764918356393,0.58897364,-6.5864487,0.47405192,2.6120598,-0.87964594,-4.0610323
1764918356451,0.4285621,-0.2825158,1.3479356,3.264464,-0.8552113,-3.8973203
1764918356505,-0.01436521,3.596091,2.5881321,2.8112018,-1.0201449,-3.4611626
1764918356559,-0.90021986,8.722076,-3.8905778,2.316401,-0.7012733,-2.2785273
1764918356614,0.7254431,15.842433,-2.3678656,1.632232,0.013439035,-0.5742133
1764918356667,2.327164,14.2622595,-2.707842,0.37995818,0.5571091,0.9272934
1764918356721,-0.89543146,2.815581,-3.5817258,-1.5552629,1.6627752,2.4947736
1764918356777,-0.33518824,-0.9864111,0.8523358,-3.789808,2.0134118,3.368311
1764918356831,0.45250413,-7.2424603,0.79726917,-5.2705455,1.5222762,4.070806
1764918356883,-0.6823475,-11.705252,1.7645266,-4.379904,1.4501941,4.0903535
1764918356937,1.6807296,-15.88074,-1.1348516,-6.183178,1.396438,3.4232888
1764918356997,1.7357962,-11.216835,5.4659624,-6.3835416,0.2125811,3.9241984
1764918357048,-1.1731589,-14.884752,2.0087352,-5.1153855,-0.010995574,2.869845
1764918357099,-1.055843,-18.6221,1.0749966,-3.2143729,0.30665436,2.8857274
1764918357151,0.18674773,-23.266851,-3.6511576,-1.690875,-0.33475417,0.7122689
1764918357203,-0.15562311,-18.86631,-4.4244847,0.49480084,-0.51068336,0.16126843
1764918357253,3.2704794,-21.693861,-2.3463178,2.048842,-0.35796702,-1.3988814
1764918357305,0.19871874,-19.529503,-0.031124622,3.6407568,-0.4361578,-1.8484782
1764918357358,0.9888053,-17.606958,1.5849615,4.6205845,-0.4728097,-2.941927
1764918357412,-0.63206923,-16.081852,1.9895816,4.492303,-0.56688297,-3.3560936
1764918357467,1.5753847,-12.938266,1.2186487,4.2601743,-0.9419542,-3.467271
1764918357520,-0.24420857,-10.644621,2.552219,3.522249,-1.3011429,-3.7201693
1764918357581,0.20829555,-8.0684595,-0.062249243,2.9492574,-1.4086553,-3.6835175
1764918357640,0.45010993,-2.5809495,0.59615624,2.8441887,-1.0690142,-3.7922513
1764918357697,0.31124622,0.8355764,-1.4700398,3.1386256,-0.9798279,-3.7372735
1764918357750,1.946486,12.552799,0.7637503,3.8020253,-0.5131268,-2.5680776
1764918357807,1.6256629,12.069171,-3.4117374,0.81122905,-0.34574974,-0.65484756
1764918357868,0.076614454,10.043676,-2.885013,-0.5216789,1.1985176,0.91751957
1764918357919,1.3144168,4.381389,0.1388637,-2.787989,1.2596041,2.0720549
1764918357970,2.3295584,0.8810662,2.1930888,-3.789808,1.2095132,2.7818804
1764918358024,2.1380222,-4.453215,3.466804,-4.4556513,0.9077458,3.4831536
1764918358078,0.40701428,-7.9224133,2.7820623,-4.6804495,0.5155703,3.1972687
1764918358130,1.6304513,-9.442732,-0.533907,-4.4617596,0.21135938,3.6065483
1764918358200,0.6991069,-12.548011,0.47884035,-5.281541,-0.27488935,2.9993484
1764918358251,0.7589619,-13.67568,2.2960393,-4.184427,-0.6084218,3.299894
1764918358303,1.1971009,-14.8512335,0.11971009,-2.8539624,0.22235495,2.7721064
1764918358355,1.1779473,-17.223886,-1.0821792,-1.7922786,-0.02687807,2.3945918
1764918358407,1.3862427,-21.734564,-2.4013844,-0.70249504,-0.25778514,0.6291912
1764918358458,2.7461493,-21.485565,0.11492168,0.9492846,-0.16126843,-0.72082096
1764918358510,2.8419175,-20.487185,-0.7015011,1.9278907,-0.16737708,-1.5601498
1764918358563,2.7030537,-15.729905,1.1563994,3.7702603,-0.15271631,-2.5118778
1764918358618,2.3056161,-13.584701,2.2337902,4.6437974,-0.39706242,-2.7256808
1764918358671,0.82121116,-14.041993,2.0135236,4.5582767,-0.7012733,-2.7635543
1764918358728,0.2801216,-12.5504055,2.2457612,4.0036106,-0.874759,-3.0934217
1764918358785,1.163582,-8.858546,0.5267244,3.1716123,-0.9053023,-3.6884043
1764918358845,-0.17477672,-3.2273839,1.5251064,2.4080307,-0.8918633,-3.940081
1764918358901,1.9009962,0.89064306,1.6256629,2.8075366,-0.98349303,-3.7116172
1764918358955,1.910573,5.5377884,-0.9648633,2.8405235,-0.9737192,-2.9578094
1764918359016,1.7908629,10.409989,0.2801216,2.734233,-0.59986967,-1.3487904
1764918359069,2.1332338,9.464279,-4.6112323,0.1282817,0.4092797,0.034208454
1764918359124,0.91697925,7.501034,-4.4819455,-1.5112807,1.4721853,1.4013249
1764918359176,-0.20111294,3.2632968,-3.6104562,-3.3475416,1.8594738,2.375044
1764918359229,-1.7262194,-1.7238252,3.4093432,-5.032308,2.1954496,3.4428365
1764918359281,0.023942016,-11.501745,2.2744915,-6.168517,1.5503759,3.948633
1764918359333,-1.0989386,-8.7771435,1.9560628,-7.150789,0.8552113,3.9901717
1764918359397,1.2210429,-11.796232,5.530606,-5.0384164,-0.040317107,3.9474113
1764918359452,1.1875241,-14.300567,4.086902,-5.059186,-0.71837753,2.656042
1764918359504,0.260968,-19.120094,-2.255338,-2.7550023,-0.18936823,2.307849
1764918359556,-1.043872,-20.736181,-2.870648,-1.219287,-0.64996064,1.428203
1764918359608,3.4763808,-21.495142,-2.8275523,0.6035349,-0.3567453,-0.21746802
1764918359667,1.1803415,-19.668367,-1.9177556,1.9474384,-0.22479841,-1.4086553
1764918359726,1.4101849,-17.927782,-0.031124622,2.878397,0.24556783,-2.575408
1764918359780,1.5682021,-13.06037,0.6895301,4.224744,-0.20769419,-2.5619688
1764918359848,1.8148049,-13.881581,2.6048915,3.9339721,-0.30909783,-2.605951
1764918359901,0.9600749,-14.233529,2.327164,3.549127,-0.39095375,-2.8710666
1764918359955,0.24181437,-10.376471,2.0278888,3.9999456,-0.77824235,-3.3658676
1764918360011,0.19393034,-6.8761473,1.532289,3.2119296,-0.9211848,-3.8203511
1764918360085,2.4372973,3.6296098,0.9576807,3.726278,-1.6212363,-3.3353243
1764918360139,3.3494883,7.237672,0.035913024,3.154508,-1.5796975,-2.5827382
1764918360192,4.086902,10.551247,-2.695871,1.926669,-0.48502702,-0.97005403
1764918360248,0.32321724,7.884106,-3.6248214,0.17348573,0.50701815,0.3371976
1764918360301,1.3359646,7.180211,-3.4859576,-1.4660766,1.2205088,0.829555
1764918360354,0.17477672,4.1706996,0.91219085,-2.8637362,2.021964,1.9816469
1764918360409,0.6584055,-1.6950948,2.9903579,-4.627915,1.7776178,2.7232373
1764918360460,1.3263878,-5.4180784,5.8466406,-4.776966,1.378112,2.9883528
1764918360513,2.9137435,-9.80665,1.5011644,-6.934542,0.84421575,3.177721
1764918360567,1.5179238,-8.750807,3.632004,-5.860641,0.6047566,3.1703906
1764918360620,-0.5363012,-17.492037,-3.98874,-6.1611867,0.39828414,2.886949
1764918360672,4.865018,-10.426748,3.0382419,-5.602856,-0.8881981,2.3994787
1764918360723,0.11971009,-19.033903,-4.156334,-4.174653,-0.6976081,2.026851
1764918360775,0.9600749,-17.563864,-4.510676,-1.8374827,-0.63163465,1.5870279
1764918360828,0.60094464,-23.376986,-5.533,-0.4605924,-0.09407325,0.6536258
1764918360882,2.4181437,-20.31959,-3.9600096,1.3231341,0.09162979,-0.6230826
1764918360942,1.5059528,-17.199945,-2.171541,2.6572638,0.548557,-1.9730947
1764918360994,0.94331545,-15.689203,-1.1947067,4.359134,0.24556783,-2.430022
1764918361054,3.3399115,-14.504074,-0.011971008,5.3805013,-0.036651913,-2.8087585
1764918361107,1.3551182,-12.064383,0.9864111,5.044525,-0.1685988,-2.9626966
1764918361160,1.8148049,-9.136273,2.315193,4.350582,-0.6218608,-3.3157766
1764918361211,0.7302315,-6.945579,1.8435353,4.320039,-0.8698721,-3.4025195
1764918361263,0.92895025,-2.3415294,3.4715924,4.256509,-0.9334021,-3.3243287
1764918361321,1.3551182,3.857059,-1.6903064,3.5417967,-1.4795157,-2.7855456
1764918361381,3.4021606,6.4643445,2.5689783,3.3377676,-1.2119566,-2.1917844
1764918361438,2.8658595,12.61026,-1.6472107,1.998751,-0.27488935,-0.829555
1764918361498,2.5929205,7.6494746,-3.70383,-0.5705481,0.51923543,0.5558874
1764918361550,2.2146366,4.1659107,-0.40701428,-1.2351695,1.2596041,1.0934488
1764918361602,1.9967642,2.3918076,1.8602947,-3.4257324,1.6029104,1.6578883
1764918361680,3.2441432,0.24660277,3.9576154,-5.039638,0.75869465,2.733011
1764918361733,3.107674,0.04309563,3.98874,-6.0084705,0.59131753,3.209486
1764918361785,2.645593,-0.15322891,4.1802764,-6.1807346,0.04642576,3.408628
1764918361838,-1.4772224,-10.867282,-0.90261406,-4.714658,-0.19303341,3.3622024
1764918361904,1.2545617,-13.970167,0.21547815,-4.8930306,-0.2565634,2.886949
1764918361955,2.183512,-19.436129,-3.2441432,-3.6346483,-0.81000733,2.5118778
1764918362006,-1.1061212,-16.4338,-2.372654,-1.8497,-0.72692966,2.0024164
1764918362057,3.6870706,-20.796036,-4.331111,-0.47158796,-0.5681047,0.66706485
1764918362110,0.7565677,-20.86068,-4.6782703,0.3848451,-0.2773328,-0.14782938
1764918362165,3.5529952,-20.101717,-2.992752,1.749518,0.24923302,-1.3573426
1764918362216,2.1739352,-14.077906,-1.5131354,3.0702088,0.41416663,-2.3738225
1764918362270,2.669535,-13.354857,0.62249243,4.0952406,0.38728857,-2.5216517
1764918362324,2.4492683,-13.074736,0.94810385,4.359134,0.22235495,-3.1117475
1764918362376,1.1755531,-10.34774,2.7246015,4.682893,-0.19303341,-3.1178563
1764918362430,1.8986019,-8.810662,3.0573955,4.537507,-0.5742133,-3.1337388
1764918362484,0.9768343,-6.646304,2.7724855,4.408004,-0.84665924,-3.2375858
1764918362542,1.6041151,-2.741361,2.5785553,3.866777,-1.1582005,-3.2669072
1764918362597,2.566584,1.5873557,2.5905263,3.630983,-1.4526376,-3.0225613
1764918362650,5.145139,6.0980315,2.3391352,2.6145031,-1.3329079,-1.9792033
1764918362704,2.0446482,8.1402855,-2.9496565,2.1697934,-0.37018433,-1.065349
1764918362764,0.8643068,10.077195,-2.707842,0.5143485,0.43860126,-0.02565634
1764918362818,0.533907,6.0238113,-2.3989902,-1.6151277,1.0555751,1.3243558
1764918362870,0.9696517,3.8977604,-0.90740246,-2.7220156,1.4856243,1.8252654
1764918362920,1.3814543,-0.7733272,2.0087352,-4.692667,1.3267993,2.7354546
1764918362972,2.1308396,-4.9176903,4.975151,-4.5533895,1.0372492,3.1422908
1764918363024,4.3167458,-10.484209,1.520318,-6.372546,0.25534168,3.314555
1764918363080,2.7868507,-8.571242,3.5577838,-4.3395867,0.16126843,3.6774087
1764918363132,1.0151415,-13.350069,2.89459,-3.9718459,0.12217305,3.4880404
1764918363186,3.4117374,-10.225636,6.0956373,-4.5497246,-0.6963864,2.574186
1764918363239,2.9879637,-17.056293,2.0973208,-1.6200147,-0.3359759,2.053729
1764918363290,0.39264908,-12.978968,3.6535518,0.22968534,-0.41538838,1.4966198
1764918363344,1.0630256,-16.127342,0.60573304,0.548557,-0.37995818,0.9786061
1764918363397,-0.7589619,-15.55034,-0.34955344,2.7097983,-0.22357668,0.36285394
1764918363453,0.47884035,-14.480132,0.15801731,7.7946405,0.40561453,-0.02321288
1764918363513,-0.94810385,-4.7022123,4.972757,12.88437,0.7635816,-0.14660765
1764918363564,0.92176765,6.0142345,11.365275,8.278446,-0.010995574,-0.50579643
1764918363619,0.23702596,2.171541,9.825804,2.3530529,-0.20525073,-0.9211848
1764918363674,-0.40701428,4.4101195,8.437167,1.4966198,-0.19181168,-0.5729916
1764918363728,-0.7685388,4.345476,8.128315,0.86132,-0.12705997,-0.344528
1764918363787,-0.545878,4.783615,8.394072,-0.10140363,-0.15149458,-0.17470746
1764918363847,-0.6631939,4.390966,8.274361,0.10262536,-0.14538592,0.08674286
1764918363908,-0.62728083,4.297592,8.056489,-0.21380283,-0.0842994,0.012217305
1764918363963,-0.80445176,4.307169,8.628703,-0.13194689,-0.111177474,-0.019547688
1764918364017,-0.33758244,4.793192,8.288726,0.065973446,-0.105068825,-0.036651913
1764918364069,-0.2801216,4.817134,8.384495,0.118507855,-0.05009095,0.03176499
1764918364130,-0.45489833,4.9105077,8.106767,-0.034208454,0.002443461,0.021991149
1764918364204,-0.4285621,4.6471453,8.312668,0.037873644,0.019547688,-0.019547688
1764918364257,-0.47165772,4.805163,8.236053,0.05375614,0.02565634,-0.02687807
1764918364311,-0.60094464,4.8985367,8.389283,0.064751714,0.080634214,-0.02076942
1764918364369,-0.5722142,4.9081135,8.336611,0.043982297,0.04520403,-0.04520403
1764918364429,-0.58657944,4.795586,8.317456,0.06963864,0.034208454,-0.034208454
1764918364484,-0.5434838,4.9176903,8.23366,0.029321533,0.0061086523,-0.036651913
1764918364537,-0.63206923,4.7285485,8.307879,-0.06841691,-0.019547688,-0.039095376
1764918364595,-0.48123455,4.84347,8.279149,-0.04520403,-0.029321533,-0.034208454
1764918364649,-0.61291564,4.7860093,8.3821,-0.018325957,0.009773844,-0.02687807
1764918364702,-0.5770026,4.8219223,8.379706,-0.06719518,0.002443461,-0.05009095
1764918364756,-0.63206923,4.6016555,8.3629465,-0.087964594,0.0012217305,-0.043982297
1764918364813,-0.62249243,4.709395,8.343793,-0.080634214,-0.0061086523,-0.065973446
1764918364870,-0.5554548,4.55856,8.429984,-0.14172074,0.004886922,-0.06963864
1764918364926,-0.6368576,4.596867,8.463503,-0.059864793,0.018325957,-0.07696902
1764918364985,-0.78050977,4.5154643,8.499416,-0.1001819,0.0036651916,-0.058643065
1764918365040,-0.6631939,4.4220905,8.599973,-0.034208454,-0.0061086523,-0.0842994
1764918365092,-0.7110779,4.429273,8.463503,-0.017104227,0.0061086523,-0.056199603
1764918365146,-0.6440403,4.3742065,8.322245,-0.007330383,0.004886922,-0.08307768
1764918365201,-0.7230489,4.4675803,8.298303,-0.02321288,0.0036651916,-0.09040806
1764918365261,-0.7278373,4.0916905,8.056489,-0.17592919,0.043982297,-0.07696902
1764918365316,-0.031124622,4.3646297,8.051701,-4.387234,-0.02076942,-0.07452556
1764918365371,1.3670892,-0.31364042,10.366894,-9.293704,-0.675617,-0.07574729
1764918365424,1.8650831,-0.8643068,7.690176,-11.147069,-0.5216789,0.7110472
1764918365476,0.045489833,-13.8959465,-4.120421,-9.94,0.065973446,-0.86009824
1764918365535,-0.61052144,-9.607931,-1.8195933,-5.054299,0.21991149,-0.23823744
1764918365597,-0.11492168,-13.239936,-0.49081135,-4.0146065,-0.784351,-0.37873647
1764918365656,0.33039984,-13.409924,-3.8738184,-2.9443705,-0.9016371,-0.77213365
1764918365713,-0.62249243,-6.981492,-7.920019,2.0769417,-0.09285152,0.032986723
1764918365766,0.39264908,-9.730036,-1.2330139,1.3707817,0.1001819,-0.43127087
1764918365820,1.4389153,-13.026852,-0.8834604,2.4263568,0.3286455,-0.40317106
1764918365876,1.3383588,-14.147338,-1.8579005,1.7446312,0.14782938,-0.94806284
1764918365931,2.135628,-13.453019,-0.15083471,2.1649065,0.18570304,-1.4844025
1764918365985,2.1643584,-12.217611,0.093373865,3.3988543,0.21868975,-1.8973475
1764918366038,4.003105,-9.562442,2.030283,4.089132,0.17592919,-2.1881194
1764918366101,4.9823337,-8.046912,5.1259856,4.709771,-0.34330627,-2.3054054
1764918366157,5.171476,-8.9519205,4.8722005,4.3689084,-0.8014552,-2.3225098
1764918366209,3.5194764,-7.723695,5.279215,4.225966,-0.9211848,-2.4874432
1764918366263,3.6607344,-1.0223241,2.2744915,3.0140092,-1.2388347,-2.679255
1764918366320,2.9472623,2.992752,1.6304513,2.9956832,-0.956615,-2.4373524
1764918366376,2.9472623,3.9432502,-0.5267244,2.261423,-0.68539083,-2.0231857
1764918366431,2.2601264,10.378864,2.0159178,1.9657644,-0.0061086523,-1.0311406
1764918366484,2.3798366,8.7053175,0.06703765,-0.02321288,0.27122417,0.40439278
1764918366540,1.8435353,5.825093,-0.45489833,-2.2149973,1.078788,1.5161675
1764918366601,1.9081788,1.9153614,1.9608512,-4.084245,1.073901,2.3848178
1764918366662,2.3558946,-2.0805612,2.645593,-4.895474,0.689056,3.1117475
1764918366714,1.1061212,-6.2225304,2.4492683,-4.1453314,0.3359759,3.4550538
1764918366769,0.095768064,-12.291832,1.5131354,-5.3316317,-0.1160644,3.3353243
1764918366825,-0.5626374,-6.1100025,4.2066126,-4.1685443,0.49602258,3.843564
1764918366881,-1.2306197,-12.052411,3.1651347,-3.2449162,-0.6133087,2.6951375
1764918366934,2.135628,-12.349293,-0.9959879,-4.1783185,-0.3200934,1.8142698
1764918366987,-0.9504981,-13.532028,-0.12210429,-1.0274754,-0.23823744,1.7898352
1764918367045,4.546589,-19.816807,1.4460979,0.1881465,-0.24556783,0.74036866
1764918367104,1.8387469,-19.785683,0.36152446,0.59620446,-0.2284636,-0.8784242
1764918367156,3.526659,-16.010027,1.1731589,1.921782,-0.19058995,-1.3548992
1764918367212,2.731784,-15.260642,2.8874073,2.5216517,-0.24923302,-1.8362609
1764918367291,2.5761611,-15.155296,2.9352913,2.8270843,-0.33353242,-2.3225098
1764918367343,2.3080103,-12.409147,3.028665,0.56321776,-0.25534168,-3.0115657
1764918367396,3.3207579,-10.390836,-0.89064306,0.3200934,-0.14660765,-3.1447344
1764918367449,1.7046716,-6.459556,-0.78290397,3.1703906,0.3408628,-3.3976326
1764918367505,1.0989386,-3.2920272,3.7014358,5.9510493,0,-3.6419785
1764918367558,1.910573,-0.7565677,5.243302,3.8191295,-0.68416905,-3.299894
1764918367611,2.7365725,2.1404164,3.3758245,3.0946434,-1.1301007,-2.4801128
1764918367665,4.7309427,5.9567738,1.3263878,1.8118263,-0.96761054,-1.3206906
1764918367718,3.3423057,8.348581,0.6967127,1.9364429,-0.4092797,-0.63163465
1764918367770,2.5067291,7.335834,-0.9935937,0.015882496,0.37995818,0.5522222
1764918367828,3.8379054,6.4068837,-2.27928,-1.9633209,0.88331115,1.1239921
1764918367884,3.5051112,5.149928,-0.41180268,-3.137404,1.2950343,1.9498819
1764918367938,1.6352397,-0.37828386,2.6623523,-3.8899899,1.4428637,2.9358184
1764918367995,0.6943185,-8.350976,-0.15083471,-4.569272,0.86009824,3.167947
1764918368048,0.5434838,-6.5337763,1.9488802,-3.771482,0.47891834,3.4428365
1764918368102,0.07182605,-8.810662,0.82360536,-3.2473598,0.48747048,3.503923
1764918368155,0.89303726,-14.96376,2.3415294,-5.434257,0.6609562,2.918714
1764918368210,4.4915223,-20.159178,4.1539397,-4.1587706,-0.16249016,2.3628268
1764918368265,1.2330139,-17.662025,-0.4189853,-1.9022343,-0.72692966,1.9303342
1764918368318,4.185065,-21.588516,0.055066638,-1.1753048,-0.04642576,0.9285152
1764918368370,3.4931402,-19.177555,-0.49081135,0.3652974,-0.59742624,-0.42394048
1764918368433,3.5314474,-18.744205,0.770933,1.8765781,-0.019547688,-1.4489723
1764918368491,2.3511062,-16.931795,3.9073372,3.1520646,-0.073303826,-2.3225098
1764918368548,1.6663644,-16.163256,1.7190368,3.6322048,-0.3481932,-2.6230555
1764918368613,2.4468741,-12.576741,3.3039982,4.039041,-0.7806858,-2.7476718
1764918368669,1.7405846,-10.694899,2.1332338,3.667635,-0.784351,-3.005457
1764918368721,1.1420342,-7.513005,1.8315643,2.9981265,-1.0091494,-3.1154127
1764918368774,1.8387469,-5.0541596,1.9847932,2.4874432,-0.7538077,-2.951701
1764918368835,0.51235914,-0.78050977,0.11971009,3.400076,-0.874759,-2.8283062
1764918368891,2.4540567,4.2425256,0.10295067,2.8857274,-0.96883225,-2.2015584
1764918368949,4.5418005,10.0987425,0.92895025,2.9297097,-1.0592403,-1.1972959
1764918369003,2.7868507,7.086837,-4.9176903,0.5045747,0.064751714,-0.05497787
1764918369059,2.6048915,6.167464,-4.855441,-1.2266175,1.2302825,0.8185594
1764918369112,2.0638018,1.8531121,-0.059855044,-3.042109,2.0659463,1.6065756
1764918369175,1.9416976,-2.0231004,4.098873,-5.321858,1.5406022,2.3469443
1764918369230,1.13964,-6.3542113,2.8778305,-6.0267963,1.1594223,2.6352727
1764918369283,1.0151415,-8.7292595,1.3120226,-6.930877,0.64751714,2.928488
1764918369352,-0.093373865,-6.6893997,0.90261406,-5.5100045,-0.4361578,3.2754595
1764918369404,-1.99437,-16.831238,-1.328782,-4.834388,-0.4886922,2.6829202
1764918369459,2.408567,-18.258183,-2.4420857,-5.315749,-0.61941737,1.8826867
1764918369515,1.6136919,-15.552734,-3.8594532,-2.3237314,-0.7012733,1.4795157
1764918369568,2.5689783,-16.350004,-7.3909006,-1.3402383,-0.53023106,0.53023106
1764918369622,3.667917,-21.253328,-7.2113357,1.1496484,-0.20158553,-0.2443461
1764918369677,2.966416,-18.212692,-2.1643584,2.4251351,0.36774087,-1.3988814
1764918369732,1.2425907,-16.180016,-4.074931,2.7391198,0.2919936,-2.2687535
1764918369785,1.3096284,-14.645331,-2.0590134,4.188092,0.3371976,-2.8136454
1764918369841,5.734113,-10.589554,1.5370775,4.5533895,0.516792,-3.1789427
1764918369893,5.3701944,-11.154586,2.8107927,4.6108108,0.07941248,-2.8686233
1764918369947,2.6072857,-10.697293,2.0398598,4.524068,-0.06963864,-3.010344
1764918370001,0.6607997,-7.1826053,0.60812724,3.938859,-0.61819565,-3.2461379
1764918370059,1.0582372,-1.8148049,0.92895025,3.4880404,-0.8038987,-3.0579915
1764918370147,2.006341,5.659893,1.7764976,2.7598891,-0.9419542,-2.1013765
1764918370199,5.674258,11.499351,-0.14604631,2.6450465,-0.6462954,-0.8491027
1764918370256,2.1404164,8.602366,-3.2010477,0.29810223,-0.02321288,0.5717699
1764918370317,2.372654,3.7445314,-1.7884687,-1.1313224,1.1936307,1.1972959
1764918370375,2.585738,4.3167458,-1.7884687,-2.7220156,1.740966,1.4624114
1764918370432,2.44448,-0.4213795,2.372654,-4.651128,1.6872098,2.6804767
1764918370489,2.815581,-5.422867,3.596091,-6.019466,1.1557571,3.1154127
1764918370542,3.2249897,-6.8761473,2.8083985,-5.531996,0.33964106,3.1618385
1764918370600,-0.47405192,-9.8042555,0.82599956,-4.4874163,-0.21624629,3.0604348
1764918370653,1.3575124,-8.540117,-2.1906946,-5.6688294,-0.7171558,3.177721
1764918370708,0.5650316,-14.018051,0.12928689,-3.8692205,-1.0946705,2.9272664
1764918370762,-0.37110126,-18.468872,-3.7732618,-2.4581218,-0.5143485,2.01219
1764918370817,0.9864111,-19.730616,-5.6790466,-1.6346754,-0.52412236,1.2009611
1764918370869,2.8203697,-20.808006,-3.9121256,-0.38606682,-0.062308256,0.10140363
1764918370922,4.7764325,-20.1089,-6.117185,0.8210029,0.07941248,-1.0152581
1764918370987,2.6839,-14.841657,-2.4851813,1.491733,0.34697145,-1.9840903
1764918371042,0.641646,-15.344439,-1.982399,3.549127,0.5448918,-2.225993
1764918371098,2.2098482,-11.951855,-1.2497733,3.8508945,0.23579398,-2.5705209
1764918371173,3.9743748,-10.232818,1.7788919,4.3261476,0.07574729,-2.6426032
1764918371225,1.0630256,-10.99178,4.747702,5.2937584,-0.23335053,-2.6487117
1764918371280,4.3742065,-6.1530986,2.4301147,1.3158038,-0.8405506,-2.8221974
1764918371335,4.0222588,-4.960786,-1.7836803,0.61086524,-0.7684685,-3.2473598
1764918371387,3.4644098,0.56982,2.8538885,1.3756685,-0.3042109,-3.1764994
1764918371443,4.0940847,4.6375685,2.837129,3.803247,-0.21135938,-2.2186625
1764918371497,5.281609,6.6654577,0.32561144,1.4611896,-0.2773328,-0.956615
1764918371549,2.4229321,7.644686,-0.50757074,1.486846,0.57787853,0.516792
1764918371606,2.6719291,3.4883518,1.0103531,-1.287704,0.6621779,1.1972959
1764918371666,2.8060043,2.1021092,2.7700913,-2.3310618,1.0323622,2.0842721
1764918371727,2.432509,-2.3319526,2.4947581,-3.980398,0.63163465,2.8124237
1764918371784,1.8339585,-7.053318,2.0638018,-3.4831536,0.34697145,3.3793066
1764918371836,1.42455,-7.551312,2.2361844,-4.2051964,0.26267207,3.5295794
1764918371895,2.480393,-12.042834,1.4413095,-3.6004398,-0.02076942,3.545462
1764918371948,3.7229836,-17.219099,-2.0039468,-4.87837,-0.36163223,2.7708848
1764918372001,2.2720973,-12.375628,4.4316673,-2.6426032,-0.7012733,2.8173106
1764918372052,0.93852705,-16.096218,-5.7963624,-3.4868188,-0.21380283,1.7910569
1764918372113,0.24420857,-16.99165,-5.9687448,-0.8772025,-0.4642576,0.9126327
1764918372184,2.111686,-21.085735,-3.6248214,0.4801401,0.07452556,-0.89675015
1764918372237,3.4237084,-18.50239,-2.456451,1.7116444,0.21013765,-1.6420058
1764918372293,0.60812724,-15.574282,-2.3463178,3.1606169,0.080634214,-2.3017402
1764918372348,0.49559975,-16.563087,-0.6967127,3.8069122,0.19181168,-3.114191
1764918372402,3.4931402,-10.759542,0.7015011,3.8521163,0.42760566,-3.2241468
1764918372457,3.6343982,-7.4627266,0.830788,4.08791,0.12217305,-2.8185322
1764918372509,2.0350714,-8.027759,1.352724,3.8081338,-0.19792034,-2.6963592
1764918372560,2.3127987,-6.1746464,-0.61052144,4.2626176,-0.37018433,-2.8600712
1764918372611,3.4237084,-1.6448165,4.5178585,3.7995818,-0.7623598,-2.8356364
1764918372662,2.920926,2.492364,2.4660277,3.2888985,-1.0152581,-2.5130997
1764918372714,3.3614593,7.2711906,2.906561,3.1264083,-0.87598073,-1.7800614
1764918372769,2.9831753,7.441179,-1.1228806,1.4379768,-0.17104226,-0.4007276
1764918372822,1.0534488,7.457938,-2.3127987,0.6536258,0.57910025,0.38973203
1764918372877,2.6791117,3.4835634,-0.7254431,-1.5381587,1.1765264,1.2644911
1764918372929,4.086902,1.0486604,2.2744915,-3.2607987,1.5540411,1.7055358
1764918372980,3.6631286,-0.47884035,4.31914,-4.293161,1.5406022,2.1954496
1764918373031,3.1962593,-4.367024,4.4340615,-5.551543,0.98715824,2.7757716
1764918373082,3.107674,-9.5385,1.6184803,-5.6272907,0.6389651,2.9675834
1764918373133,0.7541735,-6.375759,2.5019407,-5.009095,0.40317106,2.9700267
1764918373197,-1.2282255,-15.234305,-1.3718776,-4.912578,-0.042760566,2.533869
1764918373251,2.4109612,-9.358934,0.61770403,-7.429343,-0.7965683,1.8423696
1764918373304,1.5035586,-19.91497,-5.9400144,-3.0616567,-0.9957104,2.2736404
1764918373356,2.597709,-16.299725,-6.4882865,-1.6652187,-0.56688297,0.9370673
1764918373415,1.8555063,-18.945318,-8.403648,0.46181414,-0.7623598,0.015882496
1764918373472,2.7700913,-21.523872,-6.691794,1.8619173,0.2761111,-0.90041536
1764918373526,2.6982653,-17.690756,-3.2920272,2.7061331,0.33108896,-1.6859881
1764918373578,1.7262194,-14.920665,-1.7884687,3.79836,0.66828656,-2.3420575
1764918373635,3.016694,-11.59033,0.89064306,4.8966956,0.23579398,-2.615725
1764918373687,4.1515455,-10.3692875,3.095703,5.064073,-0.16371189,-2.6254988
1764918373742,2.801216,-14.384364,2.054225,3.8521163,-0.41172317,-2.7452285
1764918373795,0.9576807,-9.572019,1.388637,4.188092,-0.8173377,-3.3731978
1764918373848,2.267309,-5.973533,1.6998832,3.9840631,-0.9663888,-3.6346483
1764918373903,1.0295067,3.4596214,3.5793316,3.9791763,-1.4049901,-3.2791247
1764918373959,1.9800048,5.556942,-1.5155296,2.9321532,-1.1044444,-1.8521434
1764918374040,0.05267244,8.475474,-6.409278,1.105666,0.16493362,0.058643065
1764918374096,0.49320555,5.674258,-4.3502645,-0.43982297,1.3158038,1.2229522
1764918374150,1.2114661,3.1986535,-1.7717092,-2.0317378,1.717753,1.6603317
1764918374225,2.15957,-2.2649148,3.928885,-3.726278,1.6566665,2.2235496
1764918374278,3.1124623,-10.965444,2.4037786,-5.249776,1.4440855,2.2687535
1764918374332,3.2321723,-7.517793,5.0661306,-4.8979177,1.0482447,2.1160371
1764918374385,4.000711,-13.464991,3.1292217,-5.71159,0.6096435,2.149024
1764918374436,0.40701428,-17.551893,-1.1611878,-6.2943554,0.07941248,2.2834144
1764918374488,1.2952632,-15.227123,3.4739866,-3.6529741,-0.38606682,2.9529226
1764918374541,4.4340615,-20.69548,-2.8203697,-4.079358,-0.8258898,1.6505579
1764918374594,2.0494366,-21.521479,-1.1779473,-1.8020525,-0.77213365,1.3878858
1764918374646,4.855441,-18.701109,-2.6312277,-0.29565877,-0.48991394,0.25289822
1764918374703,4.7165775,-18.248606,-1.3958195,1.5882497,-0.5180137,-0.625526
1764918374761,1.922544,-17.053898,-0.79248077,3.1398473,-0.18203785,-1.4001031
1764918374816,2.2529438,-14.085089,-0.6847417,3.813021,-0.4728097,-1.781283
1764918374885,2.5115175,-16.85518,3.086126,4.3493605,-0.41050145,-2.252871
1764918374942,2.705448,-13.642161,3.9815574,4.5949283,-0.46792278,-2.6303856
1764918374994,1.8243817,-11.808203,2.5570073,1.7788396,-0.675617,-3.0030136
1764918375046,1.0510546,-7.5800424,2.492364,0.72204274,-0.6792821,-3.5576792
1764918375102,1.8195933,-4.211401,1.2473791,3.9852848,-0.6743952,-3.9559634
1764918375155,0.47405192,-0.5793968,3.4955344,2.9407053,-1.0042624,-3.7372735
1764918375245,1.7022774,9.557653,-0.31364042,1.6077974,-0.81489426,-1.2547172
1764918375301,1.0319009,9.203311,-3.7062242,0.9602802,0.40561453,0.3933972
1764918375353,-0.20350714,5.758055,-3.2632968,-0.8576548,1.1826351,1.0580186
1764918375405,1.1492168,1.9752164,1.5370775,-2.4788911,1.600467,1.9339994
1764918375462,2.966416,-3.1507695,4.8458643,-3.8154643,1.4184291,2.7415633
1764918375569,2.5737667,-5.0254292,5.973533,-4.1453314,0.5009095,3.3670893
1764918375621,2.2697031,-5.121197,5.781997,-5.3890533,0.14294247,3.3597589
1764918375674,2.1523874,-5.497087,5.1666875,-2.3945918,-0.10629055,3.4611626
1764918375726,5.1259856,-13.9677725,-0.39983168,-4.9199085,-0.3567453,2.751337
1764918375778,0.30166942,-13.860034,3.6631286,-2.339614,-0.32986724,2.7464502
1764918375830,1.7741034,-17.164032,-0.4333505,-2.2088888,-0.14905111,1.1068878
1764918375883,1.1755531,-19.285295,-2.7150247,-0.17715092,-0.4728097,0.32620203
1764918375935,1.5610195,-19.376274,-1.1587936,0.61819565,-0.63285637,-0.20891592
1764918375987,2.2002714,-20.214245,-1.8339585,0.9492846,0.10140363,-1.1765264
1764918376060,0.46208093,-15.875952,-3.028665,0.766025,0.32742378,-2.5692992
1764918376113,0.050278235,-10.512939,-4.867412,1.5247196,1.1484267,-2.6572638
1764918376168,1.733402,-5.628768,-2.3008277,4.7305403,1.128879,-2.194228
1764918376244,3.8115692,-8.511387,3.881001,4.166101,-0.036651913,-2.833193
1764918376296,3.3901896,-9.672575,2.4971523,4.3066,-0.4801401,-2.9358184
1764918376349,2.9783869,-4.369418,0.9959879,4.2088614,-0.5522222,-3.0250046
1764918376406,3.4835634,-1.4389153,2.315193,4.2540655,-0.5864306,-3.0262265
1764918376459,4.9799395,4.2161894,3.5673606,3.4697146,-0.6230826,-2.3371704
1764918376511,5.1762643,8.228871,0.7637503,3.2436945,-0.18325958,-1.382999
1764918376571,4.3047748,8.707711,0.6895301,0.5155703,0.013439035,-0.15515977
1764918376634,3.5098996,4.9919105,-0.44771573,-1.219287,0.6047566,1.001819
1764918376685,3.9121256,3.3159695,1.4700398,-3.1789427,1.0311406,1.7446312
1764918376737,3.1124623,0.8834604,2.6360161,-4.2638392,0.8405506,2.3017402
1764918376788,3.074155,-2.7365725,2.0566192,-4.7940702,0.5363397,2.819754
1764918376841,2.0566192,-4.6830587,1.6424223,-4.448321,0.5204572,3.0286698
1764918376893,0.5626374,-8.808268,0.2825158,-4.550946,0.35430184,3.1740558
1764918376949,-0.24181437,-7.9104424,2.3702598,-3.580892,-0.12461651,3.2436945
1764918377002,-0.830788,-11.827356,-1.13964,-5.117829,-0.5852089,2.6401596
1764918377060,-1.0773908,-12.337321,-2.1068976,-3.749491,-0.46914452,2.9626966
1764918377112,0.1340753,-15.897499,-1.8866309,-1.4135422,-0.2968805,2.7501154
1764918377166,-0.01436521,-22.737734,-2.5450363,-1.1496484,-0.32498032,1.5906931
1764918377221,1.30484,-23.652319,-2.2697031,0.16493362,-0.096516706,0.040317107
1764918377272,3.8426938,-17.310078,-1.5897499,1.5015068,-0.17104226,-1.1313224
1764918377332,1.0342951,-15.933413,-0.110133275,2.733011,-0.20280726,-1.9449949
1764918377387,0.7613561,-16.51281,-0.059855044,3.649309,-0.13805555,-2.4459045
1764918377443,1.7357962,-14.817715,-0.35673606,3.8802161,-0.4801401,-3.1874948
1764918377496,2.743755,-10.529699,1.7310078,4.0598106,-0.43004912,-3.6395352
1764918377561,2.9281087,-6.3111157,2.8275523,3.4513886,-0.8906415,-3.5747833
1764918377616,3.560178,-9.018958,3.6774938,1.1410962,-0.88208944,-3.2766812
1764918377677,1.0223241,-2.9281087,0.12210429,3.1520646,-0.408058,-3.3169982
1764918377730,0.94810385,3.8977604,1.352724,3.1447344,-0.16982053,-2.8393016
1764918377782,1.3455414,7.45315,0.79008657,2.271197,-0.35063666,-2.0427334
1764918377834,2.315193,9.619903,-0.9552865,1.0751228,-0.06719518,-0.44959682
1764918377885,1.103727,7.666234,-1.7381904,-0.080634214,0.33841935,0.39461896
1764918377938,3.064578,5.1355624,0.48362875,-2.2638667,0.86620694,1.4196508
1764918377994,2.6862943,1.1827357,2.5617957,-3.6713002,0.71959925,2.3701572
1764918378047,2.717419,-1.8938135,2.5570073,-4.130671,0.39584067,2.8319712
1764918378100,2.6743233,-5.08289,2.3989902,-4.4959683,-0.02687807,3.1887167
1764918378155,2.111686,-9.006987,0.7038953,-4.2088614,-0.06352998,3.431841
1764918378208,3.4476504,-9.586384,-0.842759,-4.880813,-0.13561209,3.4709363
1764918378263,1.496376,-12.521675,-1.2689269,-4.8185053,-0.56688297,3.0164526
1764918378326,4.489128,-10.668563,0.47405192,-3.903429,-0.5326745,1.536937
1764918378377,2.4875755,-13.057976,-5.590461,-3.2168164,-0.54733527,1.2144
1764918378429,0.3854665,-13.27106,-5.8801594,-1.1667526,-0.61941737,1.1239921
1764918378482,3.5889084,-18.641254,-7.398083,0.22479841,-0.37140608,0.07941248
1764918378539,5.0038815,-20.05144,-5.3725886,1.6872098,0.14538592,-0.657291
1764918378597,3.2872388,-14.645331,-4.4101195,2.5766296,0.112399206,-1.8008307
1764918378651,3.8714242,-16.043545,-2.693477,3.4513886,0.29932398,-2.140472
1764918378710,3.8474822,-13.764266,-1.958457,4.2858305,0.007330383,-2.806315
1764918378762,3.4093432,-12.3038025,0.40940848,4.883257,0.30787608,-3.0164526
1764918378823,3.632004,-9.653421,0.89303726,4.656015,0.042760566,-3.2265902
1764918378881,3.4883518,-5.9448028,1.2521675,4.3945646,-0.5497787,-3.169169
1764918378939,4.2305546,-3.028665,1.8052281,3.875329,-0.57543504,-3.1239648
1764918379000,3.976769,3.550601,2.1452048,3.6432004,-0.82344633,-2.4251351
1764918379080,0.4405331,5.693412,-3.2920272,2.1587977,-0.04642576,-0.89919364
1764918379150,1.0462662,8.327033,-4.3598413,0.54244834,0.5705481,-0.080634214
1764918379217,3.1292217,5.659893,-2.2888567,-1.6798794,1.2388347,1.1594223
1764918379268,1.6927006,0.40940848,0.8379706,-3.8814378,1.6395624,1.8802432
1764918379319,0.9983821,-3.7325604,4.3167458,-5.122716,1.0995574,2.4740043
1764918379371,2.693477,-5.6215854,3.3159695,-6.4116416,0.45570546,2.864958
1764918379423,2.882619,-4.7860093,5.183447,-4.959004,-0.119729586,3.503923
1764918379484,2.4660277,-15.674838,-2.3558946,-6.0988784,0.05497787,3.467271
1764918379540,0.8475474,-17.78892,-2.6168625,-5.3890533,-0.13805555,3.3426547
1764918379594,0.7422025,-12.152967,1.7549498,-3.3011158,-0.36041048,2.7183504
1764918379648,-0.79248077,-11.789049,-3.4452562,-2.180789,-0.7110472,2.0182989
1764918379705,-0.074220255,-15.179238,-5.533,-0.4813618,-0.5045747,1.4123205
1764918379762,-1.283292,-14.092271,-3.2393548,0.5119051,-0.3848451,1.1337659
1764918379815,-2.695871,-15.995662,-1.8267759,0.2406809,0.052534413,0.5119051
1764918379868,-4.405331,-12.555194,-3.241749,3.5845573,0.33964106,-0.18203785
1764918379926,-3.2968156,-9.289502,0.11971009,6.9821897,0.98715824,-0.3371976
1764918379994,-1.9369092,-6.129156,5.8705826,8.081747,0.9114109,-0.12339478
1764918380047,-2.1284454,-1.553837,6.227319,9.897239,0.9859365,0.15027285
1764918380102,-3.3327289,0.39983168,8.3390045,7.420791,0.3042109,-0.030543262
1764918380165,-2.5761611,2.0254946,8.190564,1.8167132,0.13316862,-0.58032197
1764918380217,-2.2050598,2.468422,9.229648,1.2461652,0.04153884,-0.6377433
1764918380269,-2.906561,2.8107927,8.75799,0.6426302,0.018325957,-0.27855456
1764918380325,-3.0693667,2.9137435,9.320627,0.47036624,-0.23701571,-0.3213151
1764918380378,-3.1124623,3.2249897,8.856153,0.10751228,-0.36041048,0.04886922
1764918380434,-2.96881,3.071761,8.853758,-0.043982297,-0.43127087,-0.008552114
1764918380485,-2.44448,3.040636,8.422802,-0.029321533,-0.30298916,0.1160644
1764918380537,-2.693477,3.0693667,8.671799,-0.05497787,-0.18692477,-0.02076942
1764918380588,-2.3654714,3.2585084,8.456321,-0.042760566,-0.1001819,-0.09407325
1764918380639,-2.6408045,3.5194764,8.504205,0.17348573,0.012217305,-0.15760323
1764918380692,-2.6264393,3.691859,8.698134,0.22113322,0.081855945,-0.19914207
1764918380750,-2.7365725,3.9217024,8.3868885,0.23335053,0.035430185,-0.17959438
1764918380806,-2.554613,4.1012673,8.104373,0.05009095,-0.0012217305,-0.16493362
1764918380860,-2.2601264,3.7181952,8.209718,0.21991149,0.05375614,0.02321288
1764918380913,-2.7868507,3.1962593,8.504205,-0.12095132,0.16615535,0.002443461
1764918380971,-3.1316159,3.0693667,8.772355,-0.032986723,0.056199603,-0.05497787
1764918381034,-3.004723,3.383007,8.702923,-0.17959438,0.04153884,-0.13561209
1764918381094,-3.1387985,3.323152,9.423578,0.16982053,-0.004886922,0.043982297
1764918381151,-2.779668,3.3662477,8.971074,-0.14782938,-0.20280726,-0.065973446
1764918381203,-2.7150247,3.1986535,8.985439,-0.30909783,-0.22602014,-0.037873644
1764918381256,-2.4396915,2.89459,8.896853,-0.41783184,-0.18448131,-0.089186326
1764918381314,-2.360683,2.492364,9.167398,-0.25167647,-0.112399206,-0.1160644
1764918381373,-2.621651,2.8778305,9.44752,0.058643065,-0.10629055,-0.17837265
1764918381431,-2.4995465,2.6623523,9.332599,-0.17104226,-0.21868975,-0.17348573
1764918381485,-2.777274,2.6288335,9.32781,0.019547688,-0.19181168,-0.17348573
1764918381537,-2.669535,2.6862943,9.167398,0.036651913,-0.24923302,-0.21502456
1764918381596,-2.0590134,2.9616275,8.6095495,-0.3005457,-0.23457226,-0.32498032
1764918381652,-1.7741034,2.6288335,8.429984,-0.112399206,-0.13683382,-0.16249016
1764918381704,-1.4580688,2.7126305,8.631097,0.018325957,-0.07819075,-0.12705997
1764918381756,-0.8355764,2.8203697,8.820239,-0.029321533,-0.043982297,-0.0842994
1764918381817,1.1803415,2.1643584,9.871294,0.4886922,0.11728613,-0.19914207
1764918381876,1.8339585,3.9624038,9.674969,-0.04886922,0.14049901,-0.5412266
1764918381929,0.9983821,2.9999347,8.487445,0.31031954,0.42394048,-0.22357668
1764918381982,-1.1468226,3.359065,8.66701,0.7049385,1.0433578,-0.11484267
1764918382040,-4.429273,1.7549498,8.559271,1.0396926,0.7489208,-0.16249016
1764918382094,-6.612785,2.834735,7.704541,-0.3200934,0.6010914,-0.06352998
1764918382147,-4.7285485,3.0789435,6.327875,-0.31031954,0.16982053,-0.042760566
1764918382214,-6.215348,1.9728222,8.195353,-0.5766568,0.47036624,0.13927728
1764918382266,-6.3901243,3.1268275,7.4842744,0.20158553,0.29810223,0.2125811
1764918382319,-6.3829417,2.4851813,8.12592,-0.4251622,-0.13561209,-0.034208454
1764918382381,-5.1882353,3.193865,8.451532,-0.22357668,-0.23090707,0.07452556
1764918382445,-4.209007,3.0023289,8.00621,-0.14905111,-0.24312437,0.007330383
1764918382496,-4.5202527,2.44448,6.945579,-0.0012217305,0.07696902,-0.047647487
1764918382550,-4.8003745,2.8083985,8.39886,-0.057421334,0.02443461,-0.043982297
1764918382603,-4.1826706,1.8794483,8.959103,-0.058643065,-0.10140363,-0.009773844
1764918382659,-3.2992098,3.3614593,8.288726,-0.15882497,0.096516706,0.009773844
1764918382712,-3.8786068,2.1763294,8.717288,-0.12095132,0.008552114,-0.062308256
1764918382766,-4.0892963,2.4756045,7.97748,-0.004886922,0.030543262,-0.013439035
1764918382820,-4.3406878,2.432509,8.406042,-0.018325957,0.12583824,0.04153884
1764918382878,-4.072537,1.8100165,8.046912,-0.02565634,0.15760323,0.010995574
1764918382933,-4.134786,3.0310593,8.152257,0.080634214,0.105068825,-0.07696902
1764918382989,-4.7764325,2.4372973,7.5201874,0.2932153,-0.039095376,-0.02443461
1764918383040,-4.3646297,3.6008794,8.959103,0.17715092,-0.064751714,0.002443461
1764918383098,-4.4699745,2.7461493,8.566454,-0.42394048,0.037873644,-0.061086524
1764918383150,-4.1683054,2.920926,8.307879,0.014660766,-0.15027285,0.030543262
