t,ax,ay,az,gx,gy,gz
1764917045928,-1.292869,9.466674,1.4389153,0.04520403,-0.05375614,0
1764917045981,-1.3551182,9.557653,1.2808979,0.036651913,-0.080634214,-0.010995574
1764917046033,-1.2808979,9.662998,1.3479356,-0.0012217305,-0.12095132,-0.035430185
1764917046086,-1.484405,9.648633,1.388637,-0.019547688,-0.12095132,-0.047647487
1764917046139,-1.5251064,9.595961,1.2904748,-0.035430185,-0.15027285,-0.057421334
1764917046199,-1.4915876,9.574412,1.4915876,-0.05375614,-0.20158553,-0.06719518
1764917046264,-1.9800048,9.579201,1.5442601,-0.057421334,-0.19914207,-0.065973446
1764917046316,-2.4420857,9.624691,1.2617443,-0.07941248,-0.04520403,-0.02076942
1764917046369,-2.8682537,9.416395,1.7118542,-0.09040806,-0.040317107,0.019547688
1764917046433,-2.4732103,9.239224,2.291251,-0.059864793,0.056199603,0.1282817
1764917046489,-1.721431,9.272743,2.2577322,-0.017104227,0.07086037,0.16249016
1764917046542,-0.40701428,9.033323,1.6112977,0.015882496,0.07819075,0.15882497
1764917046594,1.0319009,8.868123,1.8818425,0.012217305,0.14049901,0.021991149
1764917046648,0.4213795,9.526528,1.6879122,0.0061086523,0.1001819,-0.08307768
1764917046700,-0.6440403,10.024523,1.7238252,-0.012217305,0.07574729,-0.14905111
1764917046756,-2.8179753,10.94629,1.5634137,-0.09407325,0.05009095,-0.14172074
1764917046809,-3.4524388,10.572795,1.7741034,-0.13561209,0.061086524,-0.0720821
1764917046861,-3.6248214,10.134656,1.3934253,-0.1685988,-0.002443461,0.014660766
1764917046913,-3.3925838,9.258378,1.5011644,-0.2321288,0.040317107,0.22235495
1764917046966,-2.7748797,9.270349,2.1284454,-0.2406809,0.1881465,0.33841935
1764917047018,-1.7741034,9.40203,2.327164,-0.22235495,0.267559,0.40194935
1764917047071,-1.5610195,9.208099,2.1571758,-0.15515977,0.24312437,0.44959682
1764917047131,-1.4221559,9.227253,2.8514943,-0.111177474,0.004886922,0.44837508
1764917047184,-2.468422,9.394848,1.412579,-0.07452556,0.17104226,0.48624873
1764917047236,-0.8714894,8.166622,1.0151415,-0.004886922,0.015882496,0.51068336
1764917047295,1.2425907,9.742006,1.7190368,0.04520403,-0.081855945,0.50701815
1764917047348,-0.6344634,9.528923,0.24420857,0.015882496,0.7867944,0.33353242
1764917047402,2.4229321,9.703699,0.3878607,0.040317107,-0.6426302,0.081855945
1764917047484,0.17956513,10.038888,1.5562311,-0.008552114,0.28099802,0.019547688
1764917047538,-0.22984336,9.358934,2.554613,-0.05009095,0.24556783,0.009773844
1764917047592,1.5705963,7.4866686,3.596091,0.002443461,-0.5717699,-0.037873644
1764917047660,2.3080103,8.192958,3.0550013,0.035430185,-1.0482447,-0.095294975
1764917047714,1.6017209,8.470686,2.5905263,-0.004886922,-0.8698721,-0.14172074
1764917047770,0.50517654,8.348581,1.7525556,-0.06719518,-0.56688297,-0.10262536
1764917047846,1.0366893,7.97748,2.8802247,-0.18692477,0.66828656,0.04886922
1764917047908,3.9719806,8.664616,2.731784,-0.23945917,0.61086524,-0.013439035
1764917047967,2.2697031,7.8865004,4.1371803,-0.2406809,-0.47036624,-0.25778514
1764917048022,2.4851813,8.293514,5.4204726,-0.21868975,-0.30787608,-0.3567453
1764917048091,0.02633622,9.660604,4.084508,-0.1160644,-0.6976081,-0.62796944
1764917048150,-2.4779987,7.335834,2.1859062,-0.042760566,-4.111123,-0.9370673
1764917048202,-8.875306,25.524584,10.065224,-0.030543262,-5.4147096,-1.0115929
1764917048255,-5.9639564,0.055066638,-0.5434838,0.30176744,-2.8050933,-0.3042109
1764917048310,-0.050278235,7.654263,1.9967642,0.12461651,-0.7684685,-0.17837265
1764917048364,-0.39504328,10.692505,2.0135236,0.080634214,-0.21991149,-0.12461651
1764917048416,-0.8403648,9.308656,1.9728222,0.035430185,0.080634214,-0.06719518
1764917048468,-0.770933,9.495404,2.7126305,0.014660766,-0.018325957,-0.04642576
1764917048521,-0.36631286,9.404425,2.1571758,0.004886922,0.0012217305,-0.021991149
1764917048574,-0.37110126,9.272743,3.1148565,0.0036651916,-0.17470746,-0.010995574
1764917048629,-1.42455,9.215282,3.0478187,0.09773844,-0.35185838,0.02687807
1764917048681,-1.0941502,9.3661175,2.7844565,0.11362094,-0.12950343,0.10995574
1764917048734,0.44771573,9.435549,2.7964275,0.12950343,-0.10751228,0.1600467
1764917048786,1.2210429,9.495404,2.0231004,0.14172074,-0.032986723,0.14660765
1764917048839,1.283292,9.488221,1.9632454,0.13561209,-0.12705997,0.118507855
1764917048901,0.5291186,9.5385,1.436521,0.12217305,-0.06719518,0.11728613
1764917048953,0.7278373,9.56723,0.9959879,0.06352998,-0.028099801,0.13316862
1764917049005,1.2258313,9.526528,1.1923125,0.028099801,0.02443461,0.14049901
1764917049058,2.111686,12.210428,6.030994,0.073303826,-0.70371675,-0.008552114
1764917049114,2.504335,8.844181,0.12449849,0.07819075,-3.898542,-0.23945917
1764917049166,2.5378537,9.844957,0.5530606,-0.05009095,0.52656585,0.16249016
1764917049219,1.6519991,9.313444,1.721431,-0.09285152,1.3903292,0.23579398
1764917049270,1.8890251,9.540894,2.5210943,-0.06719518,0.752586,0.1563815
1764917049323,2.0949266,9.378088,2.1452048,-0.040317107,0.37140608,0.09407325
1764917049374,2.1978772,9.588778,1.5921441,-0.035430185,0.35063666,0.06352998
1764917049427,1.9847932,9.433155,1.7669208,-0.065973446,0.07086037,-0.002443461
1764917049484,1.1707647,9.3661175,2.255338,-0.06841691,0.13439035,-0.008552114
1764917049537,1.4820108,9.409213,2.327164,-0.058643065,0.13805555,-0.0036651916
1764917049589,1.4748282,9.445126,2.2601264,-0.032986723,-0.017104227,-0.02076942
1764917049642,1.3239936,9.495404,2.219425,-0.028099801,-0.05009095,-0.02443461
1764917049695,1.2808979,9.473856,2.2098482,-0.021991149,-0.019547688,-0.014660766
1764917049752,1.42455,9.411607,2.0614076,-0.019547688,-0.008552114,-0.008552114
1764917049804,1.6160861,9.488221,2.1308396,-0.019547688,-0.0061086523,-0.007330383
1764917049856,1.5682021,9.445126,2.1452048,-0.017104227,-0.043982297,-0.021991149
1764917049909,1.2689269,9.452309,2.1188686,-0.02076942,0.0061086523,-0.015882496
1764917049960,1.3192052,9.485827,2.1739352,-0.021991149,0.039095376,-0.013439035
1764917050012,1.4317327,9.433155,2.183512,-0.02076942,0.018325957,-0.015882496
1764917050065,1.6950948,9.406818,2.3989902,-0.010995574,0.007330383,-0.029321533
1764917050122,1.5394717,9.440337,2.4037786,0,-0.02443461,-0.042760566
1764917050183,1.3192052,9.423578,2.4708161,0.009773844,-0.032986723,-0.05009095
1764917050250,1.1851299,9.481039,2.2625206,0.02443461,-0.029321533,-0.047647487
1764917050303,1.3024458,9.488221,2.1523874,0.029321533,0.009773844,-0.035430185
1764917050362,1.1779473,9.500193,2.1811178,0.028099801,0.06963864,-0.032986723
1764917050416,1.1611878,9.502586,1.8315643,0.028099801,0.008552114,-0.037873644
1764917050473,0.8499416,9.545682,1.8794483,0.010995574,0.018325957,-0.034208454
1764917050526,0.21068975,9.5385,2.3223755,0.008552114,0.08674286,-0.010995574
1764917050579,0.4261679,9.504981,2.2385786,0.012217305,0.12461651,0.02321288
1764917050633,0.02873042,9.40203,1.7884687,-0.02076942,1.1716396,0.17592919
1764917050685,-1.1444284,9.6845455,0.81163436,-0.119729586,2.6181684,0.42394048
1764917050737,-2.3127987,9.61272,-1.9249382,-0.13927728,0.6230826,0.28344148
1764917050790,-1.9847932,13.709199,2.4420857,-0.2565634,-0.82833326,0.41905355
1764917050844,-1.0342951,16.25184,-1.0965444,-0.35796702,2.4275784,0.8185594
1764917050897,0.45489833,18.579004,0.1412579,-0.4813618,0.97494096,0.67073005
1764917050953,1.5490485,11.741165,4.757279,-0.37873647,-1.3341297,0.408058
1764917051007,2.3319526,9.605537,4.817134,-0.1685988,-2.5766296,0.24678956
1764917051062,2.5234885,8.0445175,4.8003745,0.021991149,-3.1325169,0.103847094
1764917051131,5.5162406,6.0980315,6.4763155,0.2443461,-1.2009611,0.06841691
1764917051186,7.668628,4.3718123,1.9847932,0.36041048,-0.7770206,-0.17715092
1764917051249,5.281609,4.213795,0.50757074,0.31642818,-0.4801401,-0.28710666
1764917051304,1.9776106,6.615179,-1.1851299,0.08674286,0.13439035,-0.3481932
1764917051359,2.882619,6.849811,-1.1731589,-0.05131268,0.39461896,-0.26267207
1764917051412,3.1986535,5.437232,-0.47884035,-0.18325958,0.44348818,-0.2284636
1764917051493,1.8148049,7.2448545,-1.5753847,-0.43493605,0.54611355,-0.087964594
1764917051547,1.8100165,9.227253,1.1444284,-0.55955255,0.40317106,0.096516706
1764917051599,7.8984714,7.0605006,4.3143516,-0.5448918,0.61453044,0.17959438
1764917051654,-1.5945383,7.0581064,3.8905778,-0.4288274,-0.10140363,-0.15149458
1764917051707,3.8402996,11.580753,-1.4173675,-0.13072516,-6.338338,-0.19303341
1764917051758,1.5275006,11.942278,-0.06703765,-0.19792034,-3.6138787,0.16493362
1764917051811,2.9735985,9.018958,1.1827357,-0.25289822,-0.39095375,0.516792
1764917051863,6.3661823,6.5505357,1.5298948,-0.062308256,-1.3048081,0.33108896
1764917051916,7.2592196,6.7923503,0.8355764,0.03176499,-0.95539325,0.25778514
1764917051975,6.208165,7.3190746,0.94810385,0.11484267,-0.42638394,0.23457226
1764917052028,10.103531,7.833828,0.31124622,0.28344148,-0.68539083,0.014660766
1764917052081,8.219295,8.054094,2.4779987,0.3323107,0.32375857,-0.010995574
1764917052134,3.9719806,12.2080345,2.6072857,0.54611355,-0.7476991,-0.037873644
1764917052187,6.8186865,11.84651,-1.2449849,0.40317106,-0.45814893,0.02565634
1764917052239,6.105214,9.279925,-1.958457,0.12950343,1.0030408,-0.17837265
1764917052292,1.958457,8.820239,-1.1683705,0.035430185,1.5662584,-0.3286455
1764917052344,-2.1811178,10.565612,-0.5554548,0.10751228,1.2657127,-0.16737708
1764917052397,-1.1899183,8.441956,-0.92416185,0.15393804,-0.79412484,-0.058643065
1764917052450,-1.1252748,10.350134,-0.076614454,0.21746802,-1.0922271,0.19181168
1764917052502,2.5785553,8.717288,-2.0518308,0.5045747,-1.2449434,0.59742624
1764917052555,2.6527755,6.0357823,-1.7860745,0.4813618,-0.58032197,0.7318166
1764917052607,5.2409077,3.394978,-1.9752164,0.43004912,-0.50335294,0.87598073
1764917052661,4.8865657,4.912902,-1.922544,0.41783184,-0.63041294,0.82344633
1764917052713,5.9041014,5.8801594,-3.193865,0.4092797,-0.6169739,0.85154617
1764917052765,7.5968018,5.556942,-3.4955344,0.3323107,-0.21991149,0.91751957
1764917052817,10.067618,4.450821,-4.060566,0.30665436,-0.5571091,0.7733554
1764917052875,9.751583,5.2863975,-4.060566,0.35430184,-0.6560693,0.4251622
1764917052927,8.453926,6.069301,-4.4939165,0.41538838,-1.2168436,0.25778514
1764917052979,7.505822,5.865794,-6.31351,0.38728857,-0.6414085,0.28955013
1764917053031,6.6750345,4.5058875,-5.6359506,0.14538592,-0.14294247,0.45448375
1764917053085,8.078036,5.291186,-5.4204726,0.065973446,0.34697145,0.5204572
1764917053143,8.013393,3.9193082,-5.341464,0.06963864,-0.12095132,0.17348573
1764917053196,7.103596,4.697424,-4.987122,0.081855945,-0.18692477,0.10751228
1764917053248,6.133945,4.841076,-4.606444,0.07819075,0.23701571,0.12217305
1764917053300,4.9200845,5.2049947,-4.3502645,0.06352998,0.035430185,0.103847094
1764917053351,5.449203,4.912902,-4.7907977,0.030543262,-0.087964594,0.18325958
1764917053406,6.8162923,3.2154129,-4.9200845,0.008552114,1.4184291,0.3555236
1764917053459,9.82341,3.1148565,-6.2632318,0.02687807,1.8887954,0.37995818
1764917053511,11.432313,3.8857894,-3.5936968,0.052534413,3.2632422,0.46914452
1764917053562,9.765948,3.4859576,0.019153614,0.017104227,3.8154643,0.45937067
1764917053614,11.779472,3.5649664,-0.39504328,0.035430185,3.6077702,0.37995818
1764917053665,13.306973,5.81791,2.2266076,-0.089186326,1.7470746,0.13561209
1764917053717,12.650962,4.5298295,3.478775,-0.14782938,2.430022,0.008552114
1764917053768,9.631873,4.84347,5.48751,-0.18203785,3.7751472,-0.009773844
1764917053820,6.291962,6.160281,6.6534867,0.03176499,2.6780334,-0.064751714
1764917053871,6.0142345,6.7923503,4.000711,0.02321288,2.910162,-0.02565634
1764917053923,2.5115175,6.179435,4.996699,-0.12095132,3.1752775,-0.040317107
1764917053978,4.146757,6.0357823,5.9926867,-0.25411993,2.4911084,-0.073303826
1764917054030,1.6831238,3.809175,11.257536,-0.22968534,2.8478537,-0.13072516
1764917054082,1.2234371,3.9719806,11.836933,-0.06352998,1.9511036,-0.23579398
1764917054134,-1.0366893,3.5362358,12.670115,0.10873401,2.992018,-0.105068825
1764917054185,-6.670246,4.122815,9.078813,0.5216789,1.3377949,0.02321288
1764917054238,-5.1259856,4.656722,7.28795,0.5852089,-0.61819565,0.037873644
1764917054293,-4.441244,4.9775453,6.409278,0.52290064,-0.047647487,0.22602014
1764917054348,-0.9576807,6.2512608,3.7349546,0.22357668,0.31764993,0.38973203
1764917054400,-0.81642276,5.707777,7.711724,0.10140363,-0.4288274,0.13561209
1764917054452,-1.328782,4.63278,7.5848308,0.14172074,-0.50579643,0.064751714
1764917054504,-2.1428106,5.3127337,7.551312,0.17959438,0.7293731,0.1563815
1764917054561,-3.25372,6.3685765,6.0956373,0.17592919,0.71593404,0.1966986
1764917054613,-2.6408045,6.7803793,5.695806,0.13072516,-0.18325958,0.12950343
1764917054665,-0.62249243,5.8634,5.710171,-0.010995574,-0.02443461,0.15027285
1764917054718,-1.1899183,5.3318872,4.8482585,-0.06352998,0.84421575,0.20769419
1764917054770,-2.815581,5.4300494,5.6000376,-0.1600467,0.8210029,0.19058995
1764917054822,-1.7357962,5.245696,7.668628,-0.2883284,-0.13316862,0.13683382
1764917054875,-1.9057846,4.685453,9.009381,-0.2565634,-0.013439035,0.12095132
1764917054927,-1.6065093,4.8482585,10.694899,-0.15149458,-0.09285152,0.07941248
1764917054979,-2.1667526,6.5457473,11.839328,0.12461651,-0.14294247,0.010995574
1764917055031,-2.9496565,6.691794,12.801797,0.24678956,-0.015882496,0.032986723
1764917055083,-2.932897,6.789956,13.910312,0.40439278,-0.13194689,0.05497787
1764917055134,-2.8898015,6.0501475,14.501679,0.61575216,-0.18448131,0.08552113
1764917055187,-2.5761611,5.3223104,13.752295,1.1007792,-0.09773844,0.14049901
1764917055248,-2.834735,5.2624555,12.902353,1.3182472,0.19914207,0.18936823
1764917055301,-3.3973722,5.722142,9.866506,1.6627752,-0.29810223,0.24556783
1764917055354,-3.217807,6.0166287,8.734048,1.7641789,-0.51923543,0.2687807
1764917055407,-2.3774424,6.0118403,8.030152,1.8374827,-0.5644395,0.28710666
1764917055460,-0.7757214,5.073313,6.3302693,1.9572122,-0.50701815,0.29810223
1764917055514,-1.541866,4.5082817,5.437232,2.0158553,-0.09896017,0.31642818
1764917055566,-0.30645782,4.000711,4.3598413,2.0781636,-0.26389378,0.28221974
1764917055619,0.088585466,3.655946,1.8962077,2.1697934,-0.118507855,0.26389378
1764917055670,-0.031124622,3.4117374,0.94331545,2.1991148,0.14538592,0.27855456
1764917055722,-0.48841715,3.157952,-0.33039984,2.211332,0.15393804,0.29565877
1764917055774,-0.06464344,2.9712043,-1.3359646,2.2174408,-0.06719518,0.28710666
1764917055825,0.12689269,2.5306711,-4.644751,2.1917844,-0.23090707,0.2883284
1764917055876,1.3862427,2.5498247,-6.4140663,2.1429152,-0.30909783,0.22602014
1764917055929,1.0965444,2.9855695,-8.5473,2.0451767,-0.007330383,0.20158553
1764917055983,1.6950948,3.6535518,-12.70124,1.609019,-0.14905111,0.05131268
1764917056036,1.8866309,4.355053,-14.578294,1.3402383,0.028099801,0.0012217305
1764917056100,1.2880806,4.3981485,-16.019604,0.7305948,-0.02443461,-0.12950343
1764917056153,1.2354081,4.6016555,-16.12016,0.39706242,0.05375614,-0.172264
1764917056205,0.50278234,4.441244,-16.721106,0.05497787,-0.10262536,-0.21746802
1764917056260,0.0023942017,4.1539397,-16.577452,-0.6792821,-0.07941248,-0.20891592
1764917056316,0.076614454,3.715801,-15.334862,-1.0384709,-0.119729586,-0.19914207
1764917056368,-0.011971008,3.4979286,-14.504074,-1.3634512,-0.13194689,-0.18692477
1764917056425,-0.24181437,2.5498247,-12.186486,-1.9315559,-0.14294247,-0.1600467
1764917056478,-0.78769237,1.8195933,-10.788273,-2.175902,-0.1600467,-0.14538592
1764917056535,-0.5267244,1.4077905,-9.888053,-2.39337,-0.09285152,-0.12339478
1764917056587,-1.0295067,0.5650316,-6.9743094,-2.8393016,-0.021991149,-0.11484267
1764917056641,-0.93852705,0.33279404,-4.6351743,-3.0091221,0.009773844,-0.09896017
1764917056694,-0.91458505,-0.37588966,-1.30484,-3.1312952,0.15882497,-0.105068825
1764917056753,-0.8738836,-1.3215994,4.2161894,-3.1752775,0.1600467,-0.14905111
1764917056811,-1.1061212,-1.127669,6.2823853,-3.0775392,0.09773844,-0.19058995
1764917056868,-1.1109096,-0.047884032,11.149797,-2.7867672,0.13072516,-0.21624629
1764917056920,-2.3343468,-0.0047884034,12.129025,-2.6267207,-0.10995574,-0.2125811
1764917056976,-3.679888,0.770933,13.76666,-2.42147,-0.037873644,-0.12217305
1764917057033,-2.528277,1.6376339,19.536686,-1.9315559,-0.15515977,0.09407325
1764917057086,-1.0295067,2.6312277,23.374592,-1.5076154,-0.31887165,0.14660765
1764917057142,0.24899697,4.987122,27.7895,-0.21868975,-0.010995574,0.13805555
1764917057197,-0.4189853,5.683835,29.063215,0.25900686,0.1563815,0.12095132
1764917057251,-0.9744401,4.733337,30.09751,0.9407325,0.23701571,0.10262536
1764917057304,-3.1675289,0.107739076,22.316355,2.4104743,0.7770206,0.35430184
1764917057360,-2.9496565,-1.4030021,16.788143,2.8344147,0.49357912,0.46303585
1764917057419,-1.0103531,-2.6791117,7.290344,3.19116,0.15760323,0.5681047
1764917057472,-0.033518825,-2.9855695,4.331111,3.209486,0.118507855,0.57910025
1764917057525,0.39983168,-3.0885203,2.2290018,3.196047,0.07696902,0.5644395
1764917057587,0.8451532,-0.6751649,-4.6351743,2.9932396,-0.15027285,0.44959682
1764917057639,1.1468226,0.41180268,-6.9048777,2.7806585,-0.24312437,0.39095375
1764917057694,0.5434838,1.4700398,-8.655039,2.5082128,-0.15882497,0.344528
1764917057752,1.6687586,3.9600096,-11.2312,1.9010127,-0.20769419,0.23457226
1764917057805,2.0566192,4.8722005,-12.521675,1.577254,-0.16493362,0.16615535
1764917057858,1.8698715,6.126762,-14.276625,0.893085,0,0.018325957
1764917057910,2.0829554,6.435614,-15.296555,0.5326745,-0.0012217305,-0.04642576
1764917057963,2.1332338,6.505046,-15.478514,0.1563815,-0.028099801,-0.112399206
1764917058023,1.7860745,5.659893,-16.376339,-0.6560693,-0.12705997,-0.23945917
1764917058093,1.7501614,4.733337,-15.701175,-1.0983357,-0.19303341,-0.312763
1764917058145,1.1085154,2.099715,-14.432248,-1.9242256,-0.22113322,-0.41783184
1764917058201,1.4197617,0.8690952,-13.567941,-2.3335052,-0.21135938,-0.4654793
1764917058253,0.91697925,-0.8619126,-12.617443,-2.7464502,-0.14538592,-0.52412236
1764917058306,1.2306197,-5.116409,-8.295909,-3.5686748,-0.04153884,-0.6817256
1764917058358,-0.37828386,-7.8649526,-5.1666875,-3.9156463,0.08307768,-0.7892379
1764917058411,-0.89782566,-11.042058,-0.7015011,-4.2039747,-0.28099802,-0.8368854
1764917058463,-4.8841715,-14.55914,12.65575,-4.361578,-0.18570304,-0.657291
1764917058523,-6.567295,-13.239936,22.68506,-4.119675,-0.7098254,-0.49846604
1764917058578,-4.331111,-4.6160207,32.563538,-2.5815165,-0.7415904,-0.111177474
1764917058636,-4.2042184,-0.9816227,31.507694,-1.7605137,-0.47158796,0.04520403
1764917058688,-3.1555579,1.2258313,30.779858,-1.0299188,-0.2883284,0.16126843
1764917058740,-1.745373,2.1452048,28.002583,0.23090707,0.037873644,0.25534168
1764917058792,-1.6304513,1.2761095,26.73605,0.77457714,0.25534168,0.26389378
1764917058846,-2.2864625,-0.14844051,24.978706,1.3072516,0.41905355,0.27977628
1764917058904,-5.118803,-3.13401,21.732168,2.2638667,0.85154617,0.47891834
1764917058971,-7.2209125,-4.4603977,19.603724,2.6450465,0.784351,0.6646214
1764917059023,-6.203377,-6.43322,13.273455,3.2485814,0.3652974,1.1582005
1764917059074,-2.9831753,-6.6103907,8.882488,3.4379497,0.017104227,1.2779301
1764917059125,-0.62488663,-6.481104,5.1475334,3.517362,-0.009773844,1.2986995
1764917059176,0.45010993,-4.7381253,-1.460463,3.4208453,0.019547688,1.2290609
1764917059227,1.7477672,-3.5098996,-3.8019924,3.296229,-0.44593164,1.1044444
1764917059280,1.5155296,-2.2266076,-6.145916,3.1154127,-0.31031954,1.033584
1764917059332,2.0757728,-0.7422025,-7.6973586,2.878397,-0.35918877,0.956615
1764917059385,3.8618474,1.1109096,-9.847352,2.32984,-0.18325958,0.77579886
1764917059437,4.72376,2.291251,-11.693281,2.0769417,-0.3005457,0.6059783
1764917059489,5.506664,3.8953662,-14.690822,1.7825048,0.0720821,0.48380527
1764917059540,5.8466406,6.0405707,-17.068264,0.97127575,-0.04520403,0.13683382
1764917059592,5.391742,6.05733,-16.745047,0.52412236,-0.10262536,-0.013439035
1764917059644,5.5401826,5.7628436,-16.122555,0.112399206,-0.1160644,-0.14660765
1764917059699,4.4101195,4.0174704,-14.647726,-0.6267477,0.037873644,-0.3933972
1764917059752,3.5817258,3.3973722,-13.819332,-1.0458013,-0.05497787,-0.5363397
1764917059805,3.2130187,2.0901382,-13.321339,-1.3793337,0.11728613,-0.61086524
1764917059857,3.9935284,0.8475474,-13.395558,-2.0292943,0.013439035,-0.82833326
1764917059909,5.0996494,1.3000516,-12.411542,-2.4349089,-0.3359759,-0.9822713
1764917059961,3.4141316,0.260968,-10.977415,-2.8918362,-0.15271631,-1.1276573
1764917060015,-0.11492168,-3.5936968,-3.6152446,-3.6774087,-0.38973203,-1.2681563
1764917060067,-0.7254431,-5.085284,0.8762778,-3.907094,-0.13439035,-1.2412782
1764917060120,-2.7222073,-6.9168487,5.3701944,-3.9877284,-0.22357668,-1.2449434
1764917060180,-3.0933087,-7.6949644,10.041282,-3.938859,-0.37384954,-1.1569787
1764917060232,-4.6519337,-7.0365586,20.683508,-3.3096678,-0.28344148,-0.86498517
1764917060284,-4.4340615,-4.4580035,23.602041,-2.7501154,-0.43004912,-0.7476991
1764917060336,-6.679823,0.50996494,25.373749,-1.5442673,-0.19303341,-0.50579643
1764917060389,-6.7085533,2.327164,26.048914,-0.98471475,-0.05131268,-0.35185838
1764917060440,-8.109161,3.3399115,27.820623,-0.42271876,0.09773844,-0.204029
1764917060494,-8.425196,3.383007,30.016108,0.1881465,0.12583824,-0.029321533
1764917060546,-9.667787,0.8523358,28.07441,1.5540411,0.3481932,0.43860126
1764917060598,-9.481039,-1.6424223,24.361002,2.1551325,0.32253686,0.68783426
1764917060659,-6.6175733,-5.81791,17.152061,2.9993484,0.3005457,1.1606439
1764917060711,-4.1419687,-7.4148426,13.024457,3.3108897,0.059864793,1.2974777
1764917060764,-1.8818425,-7.9966335,8.24563,3.5198054,0.24678956,1.3903292
1764917060816,1.3838485,-7.73806,1.1180922,3.6407568,-0.002443461,1.2999213
1764917060870,1.8028339,-6.5840545,-1.7956513,3.5979962,-0.21135938,1.1777482
1764917060925,2.5617957,-5.221754,-5.5138464,3.4892623,-0.10262536,1.0824533
1764917060979,2.789245,-1.1659763,-11.022904,2.9529226,0.062308256,0.9126327
1764917061031,3.8379054,0.59376204,-12.885593,2.5876253,0.07819075,0.8491027
1764917061084,4.5034933,2.8083985,-14.717158,2.1025982,0.12095132,0.70738196
1764917061137,6.766014,5.303157,-18.37071,1.2144,0.20769419,0.42760566
1764917061189,7.019799,6.1076083,-18.935741,0.72204274,0.17348573,0.24312437
1764917061241,6.7468605,5.5617304,-18.461689,0.25167647,0.014660766,0.04642576
1764917061293,6.612785,4.4603977,-17.338808,-0.63041294,-0.21502456,-0.33475417
1764917061344,6.291962,3.071761,-16.563087,-1.065349,-0.040317107,-0.5216789
1764917061396,4.2185836,1.1228806,-17.764977,-1.5222762,0.34574974,-0.70616025
1764917061448,2.5019407,-0.37828386,-17.628508,-2.0329595,0.2565634,-0.829555
1764917061500,2.5234885,-2.087744,-12.943054,-2.9626966,0.034208454,-1.0384709
1764917061552,2.4013844,-3.809175,-8.939949,-3.3609805,0.204029,-1.1362094
1764917061605,1.2306197,-5.329493,-4.5058875,-3.6505308,0.15149458,-1.2779301
1764917061658,-0.5793968,-8.037335,4.297592,-3.9278636,0.112399206,-1.4294246
1764917061710,-2.315193,-8.250419,7.441179,-3.8411207,0.10751228,-1.4782939
1764917061763,-5.0757074,-8.355764,11.15698,-3.6786306,0.07819075,-1.4025466
1764917061814,-7.156269,-6.7085533,18.05707,-3.1312952,-0.48747048,-1.0824533
1764917061866,-6.943185,-4.9296613,21.440077,-2.7269025,-0.5656612,-0.86009824
1764917061917,-7.0724716,-2.6791117,23.69781,-2.2516494,-0.49602258,-0.643852
1764917061970,-6.8162923,-0.15083471,25.711332,-1.7153096,-0.40683624,-0.4605924
1764917062021,-5.449203,2.966416,27.523743,-0.58276546,-0.07452556,-0.19914207
1764917062073,-6.172252,2.9472623,28.038496,-0.004886922,0.21135938,-0.10140363
1764917062128,-7.615956,2.3295584,27.38009,0.59620446,0.4202753,0.014660766
1764917062180,-10.070012,-0.6344634,22.998701,1.6762142,0.5363397,0.44837508
1764917062233,-10.577583,-2.0231004,19.919758,2.0928242,0.5131268,0.73426
1764917062285,-9.234436,-3.1364043,17.85835,2.4055874,0.42760566,1.0115929
1764917062337,-3.952827,-5.5497594,13.546393,3.040887,0.204029,1.3732251
1764917062389,-1.115698,-5.9041014,8.916007,3.2485814,0.1282817,1.3707817
1764917062442,0.7733272,-5.403713,5.1475334,3.3695326,0.08307768,1.3011429
1764917062494,1.4317327,-4.3023806,-1.043872,3.3695326,0.06963864,1.0995574
1764917062546,0.93134445,-3.809175,-3.0214825,3.281568,0.059864793,1.0274754
1764917062597,1.2114661,-2.4540567,-5.568913,3.1764994,-0.20891592,0.95172805
1764917062650,1.1444284,-0.830788,-9.275137,2.9846876,-0.10873401,0.893085
1764917062702,2.018312,2.0326772,-12.847286,2.3408356,-0.096516706,0.79534656
1764917062754,3.3255463,3.2106245,-14.341269,1.9572122,-0.06841691,0.7330383
1764917062807,3.6655228,4.3837833,-15.945383,1.5406022,-0.029321533,0.63285637
1764917062860,4.3382936,5.554548,-17.286137,0.6731735,0.10995574,0.41538838
1764917062912,3.9911342,5.7867856,-17.583017,0.2406809,-0.073303826,0.30298916
1764917062965,4.367024,5.9400144,-17.37951,-0.19792034,-0.12095132,0.19914207
1764917063017,4.876989,4.0916905,-16.452953,-1.0531317,-0.039095376,-0.06719518
1764917063069,4.7907977,2.992752,-15.710752,-1.4624114,-0.06719518,-0.22479841
1764917063121,4.9296613,1.9560628,-14.542381,-1.8668042,0.058643065,-0.37384954
1764917063174,3.9791632,0.02873042,-10.893618,-2.5802948,0.1966986,-0.7305948
1764917063229,2.695871,-0.59855044,-8.659827,-2.9211576,0.9602802,-0.86620694
1764917063282,1.1228806,-1.0726024,-6.3781533,-3.2058208,0.46792278,-1.102001
1764917063336,0.37828386,-3.1914709,-0.7206547,-3.5515707,0.13683382,-1.3622295
1764917063389,-1.6328455,-5.2528787,2.219425,-3.6407568,0.548557,-1.4049901
1764917063442,-3.181894,-7.0102224,7.0221934,-3.6505308,0.02076942,-1.4587462
1764917063494,-5.6407394,-7.4627266,15.298949,-3.259577,-0.29932398,-1.2205088
1764917063546,-6.301539,-5.5138464,19.120094,-2.8136454,-0.39584067,-1.0250319
1764917063597,-6.825869,-3.4261026,23.060951,-2.4654522,-0.32742378,-0.893085
1764917063648,-6.9479733,-0.7685388,24.557327,-1.8704693,-0.21380283,-0.6976081
1764917063700,-7.5704656,3.0621839,23.72175,-0.64996064,0.24556783,-0.34697145
1764917063753,-7.8649526,3.3566709,22.582111,-0.18081611,0.07086037,-0.21991149
1764917063806,-8.726865,3.0190883,22.98673,0.24678956,0.19914207,-0.029321533
1764917063859,-8.990228,1.1348516,22.383392,1.1728612,0.31887165,0.39828414
1764917063911,-8.568848,-0.47884035,21.720198,1.6786577,0.11728613,0.59742624
1764917063966,-7.8865004,-1.2378023,18.351557,2.1184807,0.54000485,0.8503244
1764917064018,-4.951209,-2.7700913,12.164939,2.7623327,-0.17715092,1.1191051
1764917064071,-4.4556093,-2.954445,9.720459,2.9394836,-0.35308012,1.1655309
1764917064122,-2.4899697,-3.2154129,7.079654,3.0946434,-0.65240407,1.1386528
1764917064174,-0.050278235,-2.5570073,2.348712,3.209486,-0.5143485,1.0030408
1764917064227,0.6560113,-1.6783354,-0.12928689,3.2070425,-0.3652974,0.91874135
1764917064279,0.2633622,-1.0510546,-1.3694834,3.136182,-0.2773328,0.8503244
1764917064333,1.4628572,0.9935937,-6.3781533,2.9150488,-0.119729586,0.75869465
1764917064386,2.6791117,1.8267759,-9.639056,2.6939158,0,0.71593404
1764917064438,4.3885717,2.837129,-11.779472,2.398257,-0.04520403,0.625526
1764917064489,3.9145198,3.8235402,-14.705187,2.0158553,-0.06352998,0.5155703
1764917064542,4.096479,4.8147397,-16.51999,1.1520919,0.080634214,0.28588495
1764917064594,3.799598,5.2409077,-17.04911,0.70249504,0.05375614,0.17592919
1764917064646,4.5178585,5.9902925,-18.021156,0.24678956,0.009773844,0.061086524
1764917064700,4.975151,5.0876784,-17.848774,-0.6939429,0.04886922,-0.1966986
1764917064752,4.6926355,4.663905,-17.233463,-1.1582005,-0.03176499,-0.35063666
1764917064803,4.8243165,3.3087866,-16.29733,-1.6065756,0.052534413,-0.47891834
1764917064856,3.8762126,0.9935937,-12.753913,-2.4349089,0.052534413,-0.7892379
1764917064909,2.6001031,-0.31124622,-10.271125,-2.7940977,0.02076942,-0.9334021
1764917064964,1.7070658,-2.195483,-7.1706343,-3.1923819,0.017104227,-1.0592403
1764917065017,0.8643068,-4.225766,-1.3599066,-3.612657,-0.105068825,-1.1899655
1764917065070,-0.7398083,-5.8107276,1.532289,-3.7238345,0.05131268,-1.251052
1764917065122,-0.8810662,-6.7468605,4.4843397,-3.7702603,0.12217305,-1.314582
1764917065174,-4.939238,-8.736442,13.771448,-3.571118,0.062308256,-1.3243558
1764917065226,-5.056554,-8.394072,18.7466,-3.2461379,-0.23335053,-1.2266175
1764917065278,-6.813898,-6.090849,23.43684,-2.724459,-0.50823987,-1.0922271
1764917065332,-7.1514807,-3.1651347,25.419239,-2.1111503,-0.42394048,-0.86376345
1764917065384,-7.0820484,1.0654198,23.592464,-0.87598073,0.021991149,-0.44959682
1764917065436,-6.600814,2.0638018,19.800049,-0.40683624,0.20280726,-0.29565877
1764917065490,-5.659893,2.135628,16.254236,-0.105068825,0.26267207,-0.19058995
1764917065543,-2.2888567,2.336741,8.944737,0.14049901,0.20158553,-0.13439035
1764917065596,-2.5450363,2.2625206,6.6247563,0.08552113,-0.03176499,-0.2003638
1764917065655,-2.9783869,1.115698,7.678205,-0.019547688,-0.29077184,-0.14660765
1764917065708,-3.0119057,1.5921441,7.1514807,-0.05497787,-0.19425514,-0.13805555
1764917065760,-2.932897,2.018312,7.7332716,-0.11484267,-0.02443461,-0.16493362
1764917065812,-3.4524388,1.7764976,9.160215,-0.16249016,0.17592919,-0.2687807
1764917065867,-3.5745432,1.4460979,9.622296,-0.13805555,0.23335053,-0.29443705
1764917065922,-4.295198,1.2569559,9.126697,-0.087964594,0.2919936,-0.30787608
1764917065974,-5.1355624,1.0295067,8.743625,-0.057421334,0.19181168,-0.28710666
1764917066026,-5.2887917,1.1947067,8.516175,-0.061086524,0.18448131,-0.2321288
1764917066079,-5.619191,1.0869676,8.341399,-0.064751714,0.0036651916,-0.17837265
1764917066132,-5.48751,0.90261406,8.588001,-0.0842994,-0.20525073,-0.009773844
1764917066187,-5.058948,0.90021986,8.7292595,-0.09407325,-0.12339478,0.040317107
1764917066239,-4.685453,0.6847417,8.755595,-0.07941248,-0.2968805,0.059864793
1764917066291,-4.2042184,0.80924016,8.604761,-0.07819075,-0.16249016,0.10140363
1764917066344,-4.134786,0.7062895,8.645462,-0.087964594,-0.008552114,0.12339478
1764917066397,-3.9935284,0.62249243,8.607155,-0.08307768,0.002443461,0.13194689
1764917066452,-3.6487634,0.5363012,8.248025,-0.061086524,-0.056199603,0.14905111
1764917066504,-3.0573955,0.33758244,7.3310456,-0.07086037,-0.04153884,0.14905111
1764917066555,-3.205836,0.320823,6.4284315,-0.13561209,0.007330383,0.12217305
1764917066609,-2.695871,0.33279404,5.9998693,-0.23701571,0.1563815,0.10140363
1764917066662,-3.490746,0.36152446,7.0485296,-0.36774087,-0.04642576,0.05131268
1764917066713,-3.4811692,-0.16759412,7.7213006,-0.42149702,0.16126843,0.07696902
1764917066764,-3.5673606,0.22505496,8.291121,-0.43127087,0.057421334,0.042760566
1764917066816,-3.394978,0.10055647,11.274296,-0.27000242,0.15393804,-0.04153884
1764917066867,-3.58412,0.39983168,11.267113,-0.15393804,0.3555236,-0.087964594
1764917066919,-3.2704794,0.7517793,9.82341,-0.09162979,0.267559,-0.15882497
1764917066974,-5.695806,0.19871874,8.250419,-0.23823744,0.18203785,-0.015882496
1764917067027,-3.1794999,-0.30645782,9.591172,-0.2846632,0.41905355,-0.0842994
1764917067080,-6.181829,1.0462662,8.032547,-0.32620203,0.312763,-0.09285152
1764917067133,-1.2042835,-0.7422025,5.377377,-0.47403142,-0.63041294,-0.2724459
1764917067185,-3.7804444,-1.6017209,7.1826053,-0.6059783,-0.25411993,-0.31398472
1764917067236,-5.130774,-2.27928,9.572019,-0.57910025,-0.5009095,-0.29077184
1764917067289,-3.9384618,-1.6352397,10.764331,-0.31520647,0.06963864,-0.12339478
1764917067342,-4.367024,-1.8076223,10.733206,-0.21135938,-0.02443461,-0.1282817
1764917067394,-5.0254292,-1.9369092,11.614272,-0.13561209,-0.2724459,-0.13439035
1764917067446,-4.072537,-1.8219875,12.193669,-0.040317107,-0.119729586,-0.087964594
1764917067499,-3.7014358,-0.92176765,12.591106,0.23945917,0.8698721,0.06841691
1764917067552,-4.525041,-1.5490485,11.370064,0.4654793,0.98715824,0.105068825
1764917067605,-4.2281604,-1.9919758,10.342952,0.535118,0.47647488,0.040317107
1764917067659,-5.6886234,-1.6759412,10.117896,0.63407815,0.61453044,0.07696902
1764917067712,-5.674258,-1.1444284,9.387665,0.66828656,0.19303341,0.0720821
1764917067765,-5.8107276,-0.89782566,8.832211,0.6597345,0.42638394,0.15271631
1764917067819,-5.1810527,-0.25617957,7.953538,0.59864795,0.6377433,0.22968534
1764917067874,-4.4196963,-0.19393034,7.383718,0.5729916,0.22113322,0.172264
1764917067928,-4.7884035,-0.05746084,7.6015906,0.5412266,0.44715336,0.1563815
1764917067981,-5.559336,0.6631939,6.885724,0.50701815,0.4129449,0.08674286
1764917068033,-5.0062757,0.81642276,5.896919,0.47036624,0.45937067,0.087964594
1764917068088,-5.3366756,1.091756,6.0956373,0.41050145,0.5216789,0.087964594
1764917068140,-5.351041,1.2186487,5.57849,0.3371976,0.27122417,0.052534413
1764917068194,-5.451597,1.316811,5.746084,0.29443705,0.42760566,0.043982297
1764917068248,-5.57849,1.6184803,5.4204726,0.24678956,0.5009095,0.0061086523
1764917068300,-5.415684,1.7238252,5.12838,0.20769419,0.3848451,-0.034208454
1764917068353,-5.8322754,1.6472107,5.17387,0.16615535,0.38606682,-0.059864793
1764917068408,-6.3422403,1.8339585,5.255273,0.095294975,0.20280726,-0.12950343
1764917068461,-6.555324,1.7836803,5.2026005,0.061086524,0.13439035,-0.14782938
1764917068513,-7.074866,1.7717092,5.4324436,0.035430185,0.14782938,-0.15515977
1764917068567,-6.993463,1.7310078,5.2409077,0.007330383,0.02565634,-0.16371189
1764917068620,-7.599196,1.6807296,5.4899044,-0.061086524,-0.010995574,-0.16615535
1764917068672,-8.109161,1.5993267,5.719748,-0.0842994,-0.06719518,-0.15271631
1764917068728,-8.058883,1.6328455,5.8442464,-0.11362094,-0.056199603,-0.12583824
1764917068781,-8.257602,1.3120226,6.157887,-0.09285152,0.05009095,-0.032986723
1764917068834,-7.9702973,1.4820108,5.791574,-0.089186326,-0.04886922,-0.012217305
1764917068888,-7.2783732,1.8219875,5.142745,-0.17592919,-0.32253686,0.004886922
1764917068945,-6.244078,1.8602947,4.8817773,-0.27000242,-0.5497787,-0.014660766
1764917068997,-5.865794,1.0079589,5.473145,-0.35918877,-0.6743952,-0.0720821
1764917069050,-6.931214,-0.17717093,7.477092,-0.3555236,-0.49968776,-0.05497787
1764917069102,-9.588778,0.49320555,6.83784,-0.26267207,-0.22113322,-0.010995574
1764917069154,-7.9822683,1.2569559,7.8146744,-0.22479841,-0.6365216,0.02443461
1764917069208,-11.2312,2.111686,9.507375,-0.09285152,-0.82833326,0.19058995
1764917069260,-11.437101,-0.10295067,11.422736,-0.010995574,-1.2669345,0.3494149
1764917069312,-7.314286,-1.1947067,13.211205,0.16615535,-2.660929,0.45204028
1764917069363,-6.9120603,-1.3862427,14.324509,0.3555236,-1.6187929,0.6792821
1764917069416,-3.4404678,1.091756,13.383588,0.77946407,-1.863139,0.65240407
1764917069469,-0.16998832,2.1906946,11.334151,1.0042624,-3.5430183,0.3726278
1764917069522,4.4077253,0.6919243,11.0061455,1.1838568,-4.148997,0.06841691
1764917069575,5.647922,2.932897,10.266336,1.2681563,-1.2559389,-0.23090707
1764917069630,3.490746,2.707842,11.384429,1.2852604,-0.49968776,-0.31520647
1764917069683,3.5338416,3.1292217,10.263943,1.3500122,-0.98837996,-0.38973203
1764917069736,5.45878,4.4819455,9.44752,1.2632693,-2.2369885,-0.80878556
1764917069787,5.3965306,4.733337,9.406818,1.2803736,-2.5827382,-1.0042624
1764917069839,8.789114,3.6774938,8.034941,1.2632693,-1.9706513,-1.1276573
1764917069893,1.6136919,3.5075054,5.5377884,1.3720033,0.7489208,-1.1301007
1764917069946,0.5602432,3.8762126,3.1842883,1.3548992,-4.1734314,-1.6639969
1764917069999,3.4284968,4.3406878,1.1013328,0.9492846,-4.102571,-1.8289305
1764917070051,2.9592333,6.799533,0.17717093,0.4373795,-1.7250835,-1.5063937
1764917070104,4.606444,7.929596,0.6799533,0.26633725,-1.0128145,-1.4135422
1764917070156,4.855441,8.063671,2.8060043,0.16982053,0.593761,-1.2779301
1764917070207,2.920926,4.903325,2.4420857,0.2003638,-0.6084218,-1.5406022
1764917070258,3.9671922,3.58412,2.4899697,0.16371189,-2.3738225,-1.8704693
1764917070308,2.030283,3.5242648,2.0685902,0.059864793,-1.7287487,-1.9877555
1764917070359,0.39025488,4.2544966,2.030283,-0.080634214,-2.0708332,-2.1233675
1764917070414,-4.24492,5.207389,2.2026656,-0.25534168,-0.75625116,-1.8716911
1764917070466,-4.1156325,5.81791,3.976769,-0.3042109,-0.47525316,-1.6896533
1764917070518,-3.9624038,5.391742,4.5753193,-0.24923302,-0.47647488,-1.6566665
1764917070573,-7.690176,4.477157,3.323152,-0.25045475,-0.16615535,-1.5173893
1764917070625,-8.465898,5.521029,5.4300494,-0.24190263,-0.35185838,-1.3548992
1764917070678,-11.161768,5.8921304,5.913678,-0.14049901,-0.30298916,-1.1557571
1764917070733,-12.993333,6.054936,5.580884,0.08674286,-0.1881465,-0.5571091
1764917070785,-13.096283,5.4204726,5.8203044,0.19303341,-0.18081611,-0.25778514
1764917070837,-12.804191,4.486734,5.60722,0.2919936,-0.13927728,0.03176499
1764917070889,-13.699622,1.7597382,6.327875,0.50579643,-0.061086524,0.6096435
1764917070942,-15.286978,0.81642276,7.3789296,0.675617,-0.15027285,0.9651671
1764917070995,-15.787366,-0.18674773,6.409278,0.8588765,-0.14172074,1.3988814
1764917071048,-12.51928,-1.2976574,4.5298295,1.1276573,-0.12461651,2.375044
1764917071101,-10.340557,-2.4732103,3.8426938,1.2547172,0.056199603,2.878397
1764917071154,-6.9000893,-4.7046065,2.96881,1.4001031,-0.05009095,3.3023374
1764917071207,0.91219085,-8.59279,-0.5363012,1.6530013,-0.63041294,3.8460076
1764917071264,5.145139,-9.588778,-3.1747115,1.72264,-0.48991394,3.9828415
1764917071320,8.48984,-10.54167,-4.429273,1.7519615,-0.4728097,3.997502
1764917071383,18.392258,-9.524135,-8.0445175,1.6969837,-0.3726278,3.6688566
1764917071434,22.962788,-5.959168,-12.46182,1.5491543,-0.75747293,3.1581733
1764917071485,27.420792,1.1947067,-12.861651,0.96883225,-0.46670106,1.9853121
1764917071538,27.600357,2.944868,-12.77546,0.6462954,-0.26511553,1.1850786
1764917071590,27.593174,6.4858923,-12.691663,0.47158796,-0.38606682,0.71593404
1764917071644,26.585217,5.8634,-14.563929,-0.05497787,-0.010995574,-0.3481932
1764917071699,26.762386,3.3518825,-14.954184,-0.48624873,0.40561453,-1.0225884
1764917071751,25.19179,0.9576807,-13.515268,-0.83077675,0.5729916,-1.6126842
1764917071802,21.509508,-3.9695864,-9.464279,-1.2913691,0.48380527,-2.7036896
1764917071854,18.148048,-5.5377884,-7.007828,-1.3793337,0.4642576,-3.1178563
1764917071906,13.974956,-6.7348895,-4.987122,-1.3720033,0.81489426,-3.378085
1764917071959,10.081984,-7.1730285,-3.6248214,-1.2632693,0.8723156,-3.5246925
1764917072013,3.4045548,-6.31351,-0.7757214,-0.98715824,0.6450737,-3.6383133
1764917072069,1.1611878,-6.2752028,0.2681506,-0.8894198,-0.029321533,-3.7091737
1764917072123,-2.5306711,-6.1530986,-0.10295067,-0.8503244,-0.16982053,-3.5992181
1764917072177,-6.6391215,-3.3399115,1.5562311,-0.8344419,-0.21868975,-3.1557298
1764917072228,-8.238448,-2.3175871,2.3918076,-0.8197812,-0.38728857,-2.9089403
1764917072279,-11.070788,-1.1300632,2.7581203,-0.7892379,-0.0720821,-2.605951
1764917072332,-14.78659,1.4389153,4.4915223,-0.5925393,0.23090707,-1.8325957
1764917072383,-14.997279,2.0685902,4.211401,-0.46792278,0.13927728,-1.4489723
1764917072435,-16.141708,2.6144683,4.5274353,-0.3726278,0.25045475,-1.0861185
1764917072489,-17.54471,3.083732,4.8626237,-0.1600467,0.16371189,-0.3323107
1764917072541,-17.791313,2.7940333,3.7253778,-0.047647487,-0.04153884,0.064751714
1764917072593,-17.68118,1.9488802,4.175488,0.037873644,0.008552114,0.5119051
1764917072646,-15.741877,1.127669,4.5633483,0.2125811,-0.07452556,1.3903292
1764917072699,-14.918271,0.5386954,4.96318,0.32986724,-0.105068825,1.7947221
1764917072753,-13.764266,-0.29448682,4.9081135,0.4813618,-0.16126843,2.189341
1764917072804,-9.301474,-2.1260512,3.071761,0.7831292,-0.19181168,2.8991663
1764917072857,-5.839458,-2.822764,1.7621324,0.87109387,-0.4972443,3.1447344
1764917072910,-4.1180267,-3.0669725,1.0366893,0.9272934,-0.05497787,3.3805282
1764917072962,-0.19153613,-5.5880666,0.29688102,1.073901,-0.27977628,3.7934732
1764917073015,4.927267,-7.192182,-2.6527755,1.2168436,-0.87598073,3.866777
1764917073069,6.6415157,-8.796297,-4.618415,1.2901474,-0.72692966,3.8960986
1764917073131,12.667721,-10.508151,-8.015787,1.2095132,-0.3933972,3.8887682
1764917073184,19.139248,-8.925584,-11.183316,0.9615019,-0.3115413,3.6737435
1764917073235,25.00983,-6.457162,-10.144233,0.6585127,-0.41416663,3.1655037
1764917073286,29.321789,0.31364042,-6.3111157,0.27366763,-0.24556783,1.8692477
1764917073338,27.547686,1.4197617,-4.675876,0.24923302,0.037873644,1.2156218
1764917073391,26.908432,3.2920272,-5.3678,0.2846632,-0.51923543,0.57543504
1764917073442,25.735273,3.596091,-8.678981,0.20891592,-0.42638394,-0.4373795
1764917073495,24.98589,2.5833437,-9.725247,0.0036651916,-0.1001819,-0.9089675
1764917073547,23.848642,1.4293385,-11.118672,-0.26145032,-0.07086037,-1.3866642
1764917073602,21.806389,0.30645782,-9.7563715,-0.55833083,0.3481932,-1.7935003
1764917073657,18.87828,-2.3942018,-6.528988,-0.9016371,0.2284636,-2.5302038
1764917073709,15.203181,-3.122039,-4.9823337,-0.9505063,0.112399206,-2.8124237
1764917073762,9.916783,-4.213795,-4.1252093,-1.0458013,-0.0012217305,-3.0836477
1764917073815,7.93199,-4.1539397,-3.157952,-1.0641272,0.13683382,-3.1178563
1764917073869,5.4899044,-3.8546648,-2.7748797,-1.0616838,0.5888741,-3.1080823
1764917073927,3.8857894,-3.5290532,-1.6328455,-0.95294976,0.064751714,-3.2779028
1764917073980,0.32561144,-2.528277,-1.1683705,-0.9505063,0.26389378,-3.2607987
1764917074033,-2.0231004,-1.3192052,0.047884032,-0.9859365,0.05375614,-3.1532865
1764917074086,-4.560954,-1.541866,1.2330139,-0.98837996,-0.16982053,-2.9455922
1764917074141,-7.144298,-0.9528923,1.9728222,-0.9761627,-0.2125811,-2.7574458
1764917074194,-10.584765,-0.35673606,2.4995465,-0.93218035,-0.039095376,-2.5045476
1764917074249,-14.748282,1.2785037,4.1635165,-0.79168135,-0.059864793,-1.7800614
1764917074301,-14.970943,1.8746599,4.9057193,-0.6658431,0.081855945,-1.269378
1764917074352,-16.33085,2.4253263,5.533,-0.54244834,0.12583824,-0.8894198
1764917074408,-17.417818,2.6479871,6.363788,-0.25900686,0.056199603,-0.0842994
1764917074460,-17.913418,2.1571758,6.751649,-0.11484267,0.09040806,0.34697145
1764917074513,-17.697939,1.3862427,6.6295447,0.05497787,-0.008552114,0.79901177
1764917074565,-15.725117,-0.7613561,6.2464724,0.42638394,-0.20769419,1.7287487
1764917074617,-13.196839,-1.520318,5.566519,0.6035349,-0.28344148,2.162463
1764917074671,-11.901577,-1.5466543,4.8482585,0.77091193,-0.24190263,2.5558603
1764917074725,-6.2105594,-2.0278888,3.0190883,1.0555751,-0.4288274,3.1728342
1764917074778,-3.5194764,-2.9376855,2.0901382,1.1643091,-0.2968805,3.3988543
1764917074830,-0.7469909,-3.7493198,0.878672,1.251052,-0.21991149,3.585779
1764917074882,3.3039982,-5.494693,-1.5107412,1.2950343,-0.2443461,3.8337903
1764917074934,8.403648,-7.1490865,-3.7301662,1.3072516,-0.24556783,3.8814378
1764917074992,12.354081,-7.3166804,-5.9041014,1.219287,-0.19181168,3.781256
1764917075043,21.81836,-4.912902,-7.723695,0.88697636,-0.4251622,3.0787609
1764917075095,23.736116,-1.9393034,-6.6774287,0.72204274,-0.47891834,2.4740043
1764917075147,25.536556,1.8890251,-7.431602,0.60231316,-0.50946164,1.8729129
1764917075201,26.82703,6.528988,-8.631097,0.3213151,-0.29565877,0.73914695
1764917075253,27.511772,7.098808,-9.090784,0.14538592,-0.27488935,0.16126843
1764917075308,27.65303,6.933608,-9.730036,-0.059864793,-0.08552113,-0.40317106
1764917075364,24.9811,3.4476504,-8.9758625,-0.53878313,0.13927728,-1.5515977
1764917075417,21.703438,0.9768343,-7.632715,-0.74281216,0.21624629,-2.0659463
1764917075471,18.452112,-0.8331822,-6.411672,-0.893085,0.29932398,-2.4862216
1764917075527,10.99178,-2.3511062,-3.6272156,-1.0494665,0.27366763,-3.0079005
1764917075580,8.248025,-2.597709,-2.9400797,-1.0592403,0.26511553,-3.0714304
1764917075633,4.9057193,-2.2218192,-2.0949266,-1.0445796,0.27488935,-3.0885346
1764917075685,0.8331822,-1.7956513,-0.8451532,-1.028697,0.3408628,-3.0042353
1764917075737,-0.2777274,-1.4867992,0.074220255,-1.0115929,0.3286455,-2.9443705
1764917075792,-1.8435353,-1.0295067,1.352724,-0.956615,0.43371433,-2.8637362
1764917075846,-7.7667904,0.19153613,2.9783869,-0.77213365,0.6988298,-2.5876253
1764917075898,-9.251195,0.9504981,3.7469256,-0.64996064,0.3494149,-2.348166
1764917075949,-13.065159,2.1140802,4.685453,-0.5290093,0.47525316,-2.0244074
1764917076000,-16.347609,3.952827,5.0781016,-0.2284636,0.20525073,-1.2705997
1764917076051,-16.859968,3.86903,4.8985367,-0.07452556,0.09040806,-0.8246681
1764917076103,-17.594988,3.6846764,4.5801077,0.043982297,0.0842994,-0.37018433
1764917076156,-17.221493,3.4644098,4.4101195,0.14049901,0.07819075,0.10995574
1764917076210,-15.717935,3.098097,4.2544966,0.3481932,0.06841691,1.0396926
1764917076262,-13.292608,2.5737667,3.8259344,0.4654793,-0.030543262,1.4489723
1764917076315,-11.224017,2.5881321,3.2465374,0.5693264,-0.12095132,1.7959439
1764917076368,-4.6232033,3.193865,1.1659763,0.70249504,-0.08307768,2.2540927
1764917076421,-2.954445,3.5003228,0.16998832,0.68783426,0.3005457,2.4080307
1764917076483,1.412579,3.7229836,-0.61770403,0.593761,0.47403142,2.5607471
1764917076534,1.316811,3.7181952,-0.59136784,0.49235737,0.88086766,2.5961773
1764917076586,4.3358994,4.0821137,-1.6448165,0.44715336,0.42638394,2.5314255
1764917076640,6.8809357,3.8355112,-1.733402,0.2406809,0.47158796,2.42147
1764917076694,7.8865004,3.6583402,-1.7381904,0.15027285,0.37995818,2.3261747
1764917076749,8.640674,3.7972038,-1.0630256,0.07941248,0.4605924,2.2186625
1764917076801,9.768343,3.2920272,-0.09816227,-0.009773844,0.5155703,2.0329595
1764917076854,11.329363,3.406949,-0.47884035,-0.015882496,0.07086037,1.8839084
1764917076911,10.79785,3.1603463,0.009576807,-0.036651913,0.1966986,1.7935003
1764917076963,14.314932,3.6176388,-0.16759412,-0.047647487,-0.039095376,1.4697418
1764917077016,16.577452,3.7588966,-0.6775591,-0.040317107,-0.14538592,1.2449434
1764917077068,17.28853,4.213795,0.10534488,-0.052534413,-0.04520403,0.9896017
1764917077121,18.066647,4.8841715,1.2306197,-0.05009095,0.5644395,0.43493605
1764917077174,17.944542,5.3247046,1.3599066,-0.015882496,0.60231316,0.15393804
1764917077227,17.968483,5.0661306,1.5849615,0.010995574,0.70005155,-0.12095132
1764917077281,15.799337,4.19943,2.2146366,0.0720821,1.070236,-0.60231316
1764917077333,14.824897,4.225766,2.0853498,0.11484267,1.2290609,-0.8038987
1764917077386,13.077129,4.1946416,2.5713725,0.14294247,1.9291124,-0.9285152
1764917077440,8.980651,4.144363,2.6479871,0.2883284,3.2522466,-1.0421361
1764917077496,7.0126166,4.0078936,4.1156325,0.4007276,2.8857274,-1.0494665
1764917077549,6.0716953,4.9224787,4.8937483,0.5131268,1.2498302,-1.0922271
1764917077601,10.429143,4.5082817,6.5481415,0.63041294,1.9608774,-1.0091494
1764917077654,8.7292595,4.036624,8.525752,0.8136725,3.3560936,-1.0348058
1764917077706,4.793192,4.6255975,8.26239,1.1325442,2.960253,-1.0726794
1764917077761,0.5674258,5.2145715,4.654328,1.4721853,3.095865,-0.75625116
1764917077815,0.30406362,5.3678,3.2441432,1.5357152,2.6853635,-0.49235737
1764917077867,-1.7142484,5.4180784,2.1619642,1.5198327,3.4611626,-0.12095132
1764917077925,0.45010993,5.374983,-0.32800564,1.3854424,1.7311921,0.11484267
1764917077978,-1.4796166,5.935226,1.13964,1.3536774,0.9370673,0.0720821
1764917078033,0.557849,5.98311,-0.82360536,1.3988814,0.02687807,-0.034208454
1764917078085,-1.1707647,6.5864487,-1.6136919,1.2180653,1.8118263,0.15393804
1764917078137,-0.9864111,6.8067155,-1.7166426,1.1410962,0.81245077,0.13683382
1764917078190,-0.24420857,7.383718,-2.1452048,1.0445796,0.95294976,0.16493362
1764917078242,-0.0047884034,8.695741,-4.608838,0.91751957,0.09896017,0.0842994
1764917078296,0.011971008,8.578424,-5.932832,0.79779,0.5742133,0.08674286
1764917078355,0.2777274,9.205706,-9.361329,0.33353242,0.35308012,0.029321533
1764917078408,0.31364042,9.021352,-10.314221,0.06841691,0.43371433,0.0061086523
1764917078463,1.1803415,8.588001,-10.778696,-0.22724187,0.38362336,-0.035430185
1764917078521,1.4413095,7.2472486,-10.405201,-0.8784242,0.34208453,-0.19547687
1764917078574,1.2306197,6.2105594,-9.356541,-1.1899655,0.33475417,-0.2883284
1764917078627,1.328782,5.614403,-7.8529816,-1.4831808,1.0250319,-0.35063666
1764917078684,2.585738,4.0318356,-5.0876784,-1.9620992,1.5552629,-0.6646214
1764917078737,0.44532153,3.715801,-2.7988217,-2.1135938,2.0732768,-0.91507614
1764917078789,0.51235914,3.0214825,-2.0518308,-2.2149973,1.0958922,-1.2327261
1764917078846,-1.9991584,-0.17956513,1.9728222,-2.3628268,0.75502944,-1.7104226
1764917078901,-4.309563,-2.111686,4.8745947,-2.3738225,0.31520647,-1.8435913
1764917078955,-10.79785,-2.8802247,11.077971,-2.1355848,0.25411993,-1.7104226
1764917079008,-12.935872,-1.7238252,12.653356,-1.8863518,0.043982297,-1.505172
1764917079061,-14.516045,-0.29688102,14.341269,-1.59558,0.15760323,-1.1936307
1764917079122,-14.068329,2.3104045,15.150508,-1.0005972,0.019547688,-0.61208695
1764917079175,-13.618219,3.2154129,14.877569,-0.7049385,-0.09773844,-0.3848451
1764917079228,-12.828133,3.5553896,14.5088625,-0.4361578,0.0012217305,-0.16493362
1764917079281,-11.784261,3.7828386,13.323732,0.047647487,0.28955013,0.1966986
1764917079334,-11.614272,3.8283286,13.069947,0.25534168,0.24556783,0.344528
1764917079385,-11.647791,3.4380736,12.873623,0.45570546,0.31398472,0.49968776
1764917079438,-12.904747,2.468422,12.682086,0.8539896,0.6169739,0.90408057
1764917079490,-13.069947,1.9201498,11.980585,1.0433578,0.829555,1.1545353
1764917079543,-12.497733,1.8579005,10.326192,1.1863003,1.0910053,1.4355333
1764917079597,-10.196905,1.2042835,7.0102224,1.3084733,0.784351,1.8411479
1764917079653,-9.097966,1.1755531,5.722142,1.3451253,0.30665436,1.9401081
1764917079710,-6.6247563,1.2042835,4.072537,1.423316,-0.97127575,1.8936822
1764917079763,-1.0031705,0.59136784,0.89303726,1.672549,-1.6041322,1.6175711
1764917079818,0.1364695,1.472434,-1.7022774,1.7556267,-1.6334536,1.4489723
1764917079875,1.3239936,1.8890251,-4.367024,1.7446312,-2.0476203,1.2217305
1764917079927,4.4556093,3.4332852,-8.959103,1.473407,-1.187522,0.8857546
1764917079981,4.9296613,5.556942,-10.113108,1.219287,-1.4941764,0.61941737
1764917080038,4.1299977,9.459491,-9.004593,0.49968776,-1.1985176,0.16126843
1764917080090,3.040636,10.627861,-8.197746,0.14782938,-1.0567969,-0.010995574
1764917080143,1.8052281,10.771513,-6.9958572,-0.18570304,-0.56688297,-0.12583824
1764917080195,0.7015011,9.68694,-4.9440265,-0.6976081,-0.07574729,-0.2724459
1764917080247,0.5626374,8.875306,-3.9240966,-0.8723156,-0.13439035,-0.34574974
1764917080304,-0.11252748,8.355764,-2.4971523,-1.0201449,-0.052534413,-0.39706242
1764917080357,-0.320823,7.639898,-1.0773908,-1.2327261,-0.15027285,-0.45204028
1764917080410,-0.4357447,7.0461354,-0.019153614,-1.3170254,-0.27977628,-0.48624873
1764917080462,-1.0654198,6.9240313,0.56982,-1.3988814,-0.18325958,-0.49480084
1764917080516,-1.5658079,5.9064956,2.4636335,-1.5589281,-0.37751472,-0.48502702
1764917080570,-1.6519991,5.1666875,3.301604,-1.6151277,-0.65484756,-0.45814893
1764917080625,-1.6304513,4.8865657,4.220978,-1.6603317,-0.5143485,-0.40194935
1764917080678,-1.5753847,3.9217024,6.2632318,-1.6982054,-0.5717699,-0.34574974
1764917080732,-1.3910311,3.7301662,6.9982514,-1.6884315,-0.38728857,-0.31887165
1764917080786,-1.8028339,3.4117374,6.909666,-1.6896533,-0.15760323,-0.2883284
1764917080842,-2.1667526,2.8275523,9.291897,-1.7275269,0.07696902,-0.267559
1764917080895,-2.870648,1.2401965,12.5264635,-1.6652187,-0.08307768,-0.27488935
1764917080947,-3.9576154,0.7685388,15.923836,-1.455081,0.18081611,-0.21868975
1764917081003,-5.0014873,1.9273324,16.618155,-0.893085,0.16493362,-0.09040806
1764917081055,-3.4261026,2.6862943,15.722723,-0.59620446,-0.14782938,-0.02076942
1764917081106,-4.024653,3.1292217,16.053122,-0.34697145,-0.019547688,0.058643065
1764917081159,-3.715801,3.5529952,18.09777,0.13561209,0.07452556,0.18203785
1764917081213,-4.6136265,3.7660792,20.271706,0.50579643,0.10262536,0.26633725
1764917081266,-5.0541596,3.2800562,21.56218,0.86132,0.17959438,0.3555236
1764917081321,-4.6495395,1.0223241,21.13362,1.7446312,-0.028099801,0.53878313
1764917081374,-3.8498764,-0.21787235,19.10094,2.1649065,-0.40439278,0.5546656
1764917081426,-2.3894134,-1.4796166,15.224729,2.5033257,-0.48747048,0.53878313
1764917081479,-0.7086837,-1.472434,8.291121,2.855184,-1.0115929,0.37018433
1764917081532,0.019153614,-0.81881696,5.827487,2.8820622,-0.3652974,0.34330627
1764917081586,0.33518824,-0.47165772,4.0174704,2.8771753,0.015882496,0.31764993
1764917081641,-0.09816227,-0.23942018,1.3215994,2.846632,0.014660766,0.24678956
1764917081693,0.4261679,-0.45489833,0.22744916,2.8038714,-0.42394048,0.17104226
1764917081747,0.8762778,0.92176765,-1.1611878,2.7550023,-0.33108896,0.13561209
1764917081800,-0.045489833,0.9720459,-5.659893,2.5961773,-0.14782938,0.15393804
1764917081858,0.22984336,1.6711528,-8.049306,2.4312437,-0.15760323,0.1441642
1764917081912,1.0989386,3.8259344,-12.938266,1.9058995,0.15149458,0.111177474
1764917081965,1.1252748,4.5418005,-14.726735,1.5674802,0.08674286,0.07941248
1764917082018,1.5705963,4.939238,-15.765819,1.1948525,0.009773844,0.029321533
1764917082069,1.8028339,5.281609,-17.211916,0.43371433,-0.02321288,-0.096516706
1764917082120,1.4580688,5.511452,-18.53591,0.014660766,0.14660765,-0.1563815
1764917082190,1.5873557,4.572925,-18.497602,-0.97005403,-0.08307768,-0.2932153
1764917082241,0.18914193,3.383007,-18.227058,-1.4819591,-0.14172074,-0.34208453
1764917082294,0.50996494,1.8890251,-16.646885,-1.9816469,-0.14538592,-0.344528
1764917082345,-0.09816227,0.30645782,-14.602236,-2.4288,0.0061086523,-0.36285394
1764917082396,-0.29448682,-2.1499932,-7.8888946,-3.1300735,0.16249016,-0.4447099
1764917082446,-0.24181437,-2.9975405,-4.3718123,-3.376863,0.04153884,-0.49846604
1764917082497,0.6488287,-3.4452562,-1.6304513,-3.549127,-0.11484267,-0.5766568
1764917082548,1.8842367,-5.2049947,2.6671407,-3.7250562,-0.48747048,-0.63285637
1764917082600,-1.685518,-5.837064,4.841076,-3.8508945,-0.10629055,-0.71837753
1764917082652,-0.25857377,-7.6973586,6.2608376,-3.9327505,-0.16982053,-0.6646214
1764917082710,-2.1499932,-10.376471,10.192117,-3.957185,-0.3921755,-0.6426302
1764917082763,-4.259285,-9.859323,23.884556,-3.3988543,-0.72692966,-0.3921755
1764917082815,-4.0773253,-6.670246,30.152576,-2.7122416,-0.65118235,-0.1966986
1764917082869,-2.1188686,0.035913024,32.893936,-1.0506883,-0.3494149,0.02321288
1764917082922,-2.0159178,1.6208745,31.811758,-0.29565877,-0.23701571,0.052534413
1764917082976,-2.348712,1.5490485,31.045614,0.38362336,-0.19792034,0.057421334
1764917083030,-2.966416,-1.7190368,26.788723,1.5711454,0.28588495,0.21013765
1764917083082,-2.858677,-3.6056678,23.18066,2.0977113,0.47891834,0.3200934
1764917083135,-2.135628,-4.9057193,19.86948,2.538756,0.35308012,0.39584067
1764917083194,-1.1587936,-6.0118403,12.49055,3.0983086,0.013439035,0.47036624
1764917083247,-0.02873042,-5.4539914,8.748413,3.222925,-0.0720821,0.42760566
1764917083299,-0.045489833,-4.5561657,6.373365,3.2449162,-0.089186326,0.3933972
1764917083351,0.35194764,-2.408567,2.0207062,3.1667254,-0.12705997,0.25045475
1764917083408,-0.58418524,-1.484405,-0.1388637,3.050661,0.32375857,0.2687807
1764917083462,-0.9911995,-0.51475334,-2.0925324,2.9211576,0.087964594,0.2919936
1764917083515,-0.58418524,1.1803415,-5.853823,2.615725,-0.21991149,0.15760323
1764917083571,-0.6536171,2.0350714,-6.8306575,2.4251351,-0.44837508,0.12217305
1764917083629,0.016759412,4.5322237,-10.230424,1.9156734,-0.3323107,0.08307768
1764917083681,0.40222588,5.475539,-11.777079,1.5968018,-0.17592919,0.04642576
1764917083733,-0.019153614,6.1650696,-12.631808,1.2425,-0.035430185,0.013439035
1764917083786,-0.076614454,6.7324953,-13.843274,0.8979719,0.02321288,-0.013439035
1764917083845,-0.521936,7.4962454,-15.935806,0.18448131,0.15760323,-0.04642576
1764917083899,-0.49799395,7.2113357,-16.378735,-0.23823744,0.119729586,-0.06352998
1764917083952,-0.39743748,5.434838,-17.54471,-1.1924089,-0.0012217305,-0.08307768
1764917084007,-0.21308395,4.000711,-17.377115,-1.7116444,-0.03176499,-0.096516706
1764917084063,0.17477672,2.0470424,-15.921441,-2.2333233,0.052534413,-0.10995574
1764917084117,0.62488663,-2.5474305,-10.888829,-3.2925637,0.44593164,-0.28099802
1764917084170,0.2657564,-5.5042696,-7.8146744,-3.7274997,0.44715336,-0.43127087
1764917084224,0.3184288,-8.298303,-5.159505,-4.1013494,-1.0433578,-0.5742133
1764917084280,-0.5530606,-15.749059,3.7349546,-4.805066,-0.61453044,-0.44837508
1764917084333,-2.3558946,-18.950106,12.411542,-4.8478265,0.15271631,-0.2565634
1764917084389,-1.6280571,-13.232753,28.411991,-3.7959166,-0.7086037,-0.034208454
1764917084446,-1.055843,-8.157045,33.023224,-2.9761355,-0.77824235,0.07819075
1764917084499,-0.45010993,-3.478775,34.806904,-2.0317378,-0.36651915,0.1881465
1764917084552,1.42455,1.4053963,33.547554,-0.3921755,-0.112399206,0.15271631
1764917084608,1.3335704,1.3311762,33.320107,0.31031954,0.08552113,0.09285152
1764917084665,0.7158663,-0.31603462,32.055965,1.0152581,0.15149458,0.03176499
1764917084719,-0.82121116,-5.4659624,26.18299,2.3506095,0.3640757,0.04886922
1764917084771,-1.5011644,-7.529764,21.466412,2.8893926,0.68661255,0.15515977
1764917084826,-1.7262194,-8.611943,17.013197,3.281568,0.52290064,0.2565634
1764917084879,-0.4381389,-9.210494,8.918402,3.7140608,0.19181168,0.36285394
1764917084932,0.22505496,-8.92319,5.753267,3.7775908,0.14660765,0.3640757
1764917084987,0.5554548,-7.2424603,0.7613561,3.780034,-0.16615535,0.27488935
1764917085039,0.37588966,-6.6247563,-1.283292,3.7604864,-0.46670106,0.18692477
1764917085096,1.388637,-5.130774,-6.114791,3.6639698,-0.35063666,0.06719518
1764917085151,2.1021092,-0.92176765,-12.2224,3.1117475,0.45814893,0.0036651916
1764917085204,1.5011644,2.2697031,-16.275784,2.7183504,0.8405506,0.015882496
1764917085256,1.8028339,4.572925,-18.856733,2.2137756,0.24801129,-0.05375614
1764917085312,0.8595184,7.144298,-19.615694,1.0103711,-0.22724187,-0.17837265
1764917085376,0.17956513,7.050924,-19.39064,0.42394048,-0.028099801,-0.19547687
1764917085431,-0.62009823,5.6000376,-17.547104,-0.63163465,-0.09896017,-0.22113322
1764917085484,-1.2449849,4.915296,-16.663643,-1.1227703,-0.002443461,-0.204029
1764917085535,-1.2162545,3.5098996,-15.315708,-1.7275269,-0.13683382,-0.18570304
1764917085587,-1.2018893,1.5035586,-12.617443,-2.597399,-0.030543262,-0.14294247
1764917085640,-0.7038953,0.09816227,-10.412383,-2.9773571,0.13683382,-0.13805555
1764917085693,-0.5363012,-1.4652514,-7.6231384,-3.3194418,0.27122417,-0.16982053
1764917085749,0.8355764,-4.9799395,-1.7669208,-3.8313468,-0.010995574,-0.27855456
1764917085805,0.58418524,-7.086837,2.066196,-3.98895,0.29565877,-0.40683624
1764917085857,-0.5482722,-9.093178,6.634333,-3.9645154,0.3885103,-0.5131268
1764917085909,-3.3255463,-8.463503,14.618996,-3.499036,-0.064751714,-0.643852
1764917085960,-3.4811692,-7.2687964,18.181568,-3.1972687,-0.4361578,-0.59986967
1764917086014,-4.3382936,-4.7046065,20.870256,-2.806315,-0.26633725,-0.47891834
1764917086070,-3.9336734,-1.8626889,23.21418,-1.8411479,-0.27122417,-0.26389378
1764917086123,-3.1292217,-1.0582372,22.443247,-1.3316863,-0.2932153,-0.18081611
1764917086175,-2.870648,-0.19871874,20.314802,-0.8979719,-0.112399206,-0.12583824
1764917086229,-2.0518308,0.58418524,16.112978,-0.2968805,-0.12461651,-0.06841691
1764917086282,-1.7190368,0.39743748,14.54717,-0.10751228,-0.081855945,-0.057421334
1764917086335,-2.516306,0.40222588,13.802573,0.030543262,0.3481932,-0.014660766
1764917086388,-1.9800048,0.49799395,12.150574,0.2919936,0.19914207,-0.0036651916
1764917086442,-2.0925324,-0.17956513,11.149797,0.38606682,0.118507855,-0.018325957
1764917086495,-2.6647465,-0.06703765,10.637438,0.45448375,0.27977628,0.010995574
1764917086549,-3.3135753,1.4389153,9.275137,0.5009095,0.36285394,0.09285152
1764917086604,-2.7581203,1.6783354,8.3390045,0.45814893,-0.12095132,0.1001819
1764917086657,-2.4732103,1.8483237,8.274361,0.41172317,0.1881465,0.17837265
1764917086710,-2.4851813,2.0111294,7.7691846,0.32620203,0.20525073,0.18936823
1764917086762,-2.2457612,1.8938135,7.620744,0.26633725,0.064751714,0.1600467
1764917086816,-2.4468741,1.99437,7.723695,0.21380283,0.32253686,0.15882497
1764917086869,-2.3511062,2.0494366,7.941567,0.12095132,0.3726278,0.13072516
1764917086922,-2.7748797,2.006341,7.893683,0.080634214,0.24923302,0.112399206
1764917086974,-2.5570073,2.3702598,7.860164,0.057421334,0.30909783,0.13072516
1764917087027,-2.6767175,2.6120741,8.087613,-0.02443461,0.14172074,0.119729586
1764917087082,-2.7461493,2.4468741,8.101978,-0.062308256,-0.11484267,0.09285152
1764917087137,-2.9281087,2.695871,8.439561,-0.07086037,0.22113322,0.12339478
1764917087190,-3.2010477,2.243367,8.487445,-0.1001819,0.25534168,0.12705997
1764917087243,-2.360683,2.1906946,8.293514,-0.111177474,-0.09773844,0.087964594
1764917087296,-2.8275523,2.1978772,8.688558,-0.12950343,0.25411993,0.10140363
1764917087348,-2.870648,2.147599,9.40203,-0.13439035,0.12705997,0.065973446
1764917087400,-2.7748797,1.9800048,9.01417,-0.111177474,0.10995574,0.06963864
1764917087451,-2.9017725,2.171541,9.14585,-0.10873401,0.10629055,0.057421334
1764917087503,-3.040636,2.0973208,9.844957,-0.11728613,-0.17470746,0.036651913
1764917087556,-2.4995465,2.1380222,10.254366,-0.08307768,-0.059864793,0.04886922
1764917087609,-2.9592333,2.0805612,10.251971,-0.012217305,0.07941248,0.05131268
1764917087664,-2.4061728,2.0350714,9.753978,0.04520403,0.007330383,0.021991149
1764917087719,-2.3319526,1.9177556,9.868899,0.07819075,0.16982053,0.02076942
1764917087772,-2.6408045,2.0709844,9.564836,0.11362094,0.103847094,0.0012217305
1764917087828,-2.4468741,2.291251,8.990228,0.13561209,0.07696902,-0.018325957
1764917087880,-2.3104045,2.1883004,8.889671,0.13439035,0.12705997,-0.028099801
1764917087935,-2.303222,2.3798366,8.564059,0.13194689,-0.029321533,-0.06841691
1764917087988,-3.1866825,2.2361844,8.578424,0.12461651,0.081855945,-0.09285152
1764917088041,-3.3494883,2.2266076,8.453926,0.10995574,0.09162979,-0.09407325
1764917088094,-3.229778,2.4899697,8.39886,0.103847094,0.056199603,-0.09162979
1764917088146,-3.502717,2.384625,8.348581,0.09285152,0.0012217305,-0.07696902
1764917088204,-3.4931402,2.3678656,8.26239,0.087964594,-0.012217305,-0.06352998
1764917088257,-3.2632968,2.5091233,7.7548194,0.06841691,-0.057421334,-0.05131268
1764917088310,-3.4356794,1.8602947,8.89446,0.028099801,-0.26145032,-0.05497787
1764917088363,-3.3087866,1.7310078,9.900024,0.065973446,-0.5693264,-0.06352998
1764917088416,-2.767697,1.9512744,9.840169,0.14172074,-0.75502944,-0.064751714
1764917088474,-2.2361844,2.858677,9.665392,0.19914207,-0.2724459,-0.059864793
1764917088527,-1.6352397,3.0789435,9.44752,0.23090707,-0.36285394,-0.09773844
1764917088581,-2.942474,3.0023289,9.437943,0.25045475,0.05375614,-0.11362094
1764917088633,-2.4468741,2.5067291,9.655815,0.25534168,-0.60231316,-0.15271631
1764917088686,-1.99437,2.4133554,9.718064,0.28588495,-0.70738196,-0.12095132
1764917088743,-1.4437037,3.0573955,9.574412,0.3481932,-0.49357912,-0.052534413
1764917088796,-0.7445967,3.5051112,8.987833,0.36285394,-0.77946407,-0.09040806
1764917088850,-1.3024458,5.145139,9.7084875,0.36774087,-0.42760566,-0.089186326
1764917088903,-1.3838485,3.0909145,7.6853876,0.44959682,0.13072516,-0.029321533
1764917088959,-1.6041151,4.417302,10.371682,0.535118,-1.0958922,-0.12095132
1764917089013,-1.1971009,0.60094464,10.474632,0.6597345,-1.4367551,-0.13561209
1764917089066,1.7286136,4.7860093,7.261614,0.68416905,-1.8875736,-0.3494149
1764917089119,1.3072342,5.547365,7.079654,0.58032197,-0.9773844,-0.312763
1764917089172,1.6567876,6.0836663,6.0118403,0.53878313,-2.6120598,-0.48624873
1764917089225,2.8203697,6.0118403,5.9902925,0.35185838,-2.6719246,-0.5155703
1764917089278,4.771644,5.2648497,6.2368956,0.25778514,-1.8289305,-0.47769663
1764917089330,3.6032736,5.097255,6.1507044,0.31887165,-3.169169,-0.6597345
1764917089384,3.7110126,4.7860093,6.619968,0.1600467,-0.9944886,-0.5729916
1764917089440,3.5075054,5.6096144,5.590461,0.22968534,-1.2803736,-0.5510005
1764917089493,3.0885203,6.291962,4.8027687,0.2565634,-0.8552113,-0.40683624
1764917089545,4.8578353,7.369353,2.2984335,0.10995574,0.5204572,-0.030543262
1764917089600,3.1268275,7.369353,4.3263226,-0.039095376,2.0451767,0.15027285
1764917089653,4.098873,6.7684083,4.19943,-0.05131268,1.8264871,0.19181168
1764917089706,2.5378537,5.911284,6.2871737,-0.09285152,2.356718,0.3408628
1764917089759,2.2242134,5.523423,7.771579,-0.080634214,2.0610592,0.30543262
1764917089812,1.9728222,5.6335564,7.371747,-0.034208454,2.1135938,0.29077184
1764917089866,0.8643068,6.3661823,7.129933,-0.04153884,2.5314255,0.33353242
1764917089918,-0.46686932,6.9407907,6.9527617,-0.06719518,2.1148155,0.30787608
1764917089978,-0.50038815,6.969521,6.6367273,-0.13683382,2.4080307,0.32253686
1764917090031,-1.5275006,6.9623384,7.079654,-0.1685988,1.2999213,0.21502456
1764917090084,-1.271321,6.9383965,8.992621,-0.11484267,0.5314528,0.1282817
1764917090145,-1.091756,6.38773,7.1969705,-0.010995574,1.4428637,0.15393804
1764917090200,-2.597709,6.885724,4.8386817,-0.042760566,2.3591616,0.18692477
1764917090252,-2.791639,6.495469,5.023035,-0.07941248,1.4953982,0.081855945
1764917090307,-3.8474822,5.2528787,8.678981,-0.1282817,-1.6395624,-0.13805555
1764917090362,-2.9281087,3.9552212,9.722853,-0.065973446,-1.3304645,-0.02321288
1764917090416,-2.2864625,4.259285,10.546458,0.08307768,-0.59864795,0.087964594
1764917090469,-1.2761095,6.634333,6.9743094,0.30909783,0.12705997,0.1282817
1764917090523,-1.6759412,7.5920134,6.6367273,0.24923302,0.09285152,0.09896017
1764917090581,0.45729253,5.9448028,5.935226,0.14049901,-0.34574974,-0.018325957
1764917090633,0.06943185,5.506664,6.105214,0.12461651,0.019547688,-0.09040806
1764917090686,-0.93852705,6.0764837,5.8466406,0.0842994,0.33964106,-0.15515977
1764917090741,-1.745373,6.6247563,5.451597,-0.061086524,0.34697145,-0.23579398
1764917090794,-2.693477,6.703765,5.8634,-0.105068825,0.4007276,-0.19547687
1764917090847,-2.96881,6.6534867,6.2823853,-0.14905111,0.6047566,-0.119729586
1764917090900,-3.7828386,7.299921,5.722142,-0.19792034,0.45570546,0.056199603
1764917090952,-2.858677,7.410054,5.035006,-0.26389378,0.25167647,0.04642576
1764917091006,-2.7509377,7.038953,5.7125654,-0.36774087,0.4886922,0.04520403
1764917091059,-2.3104045,5.755661,5.777209,-0.50823987,2.307849,0.07819075
1764917091113,-4.1419687,5.509058,5.997475,-0.4728097,1.5894713,-0.09407325
1764917091166,-5.243302,4.795586,5.571307,-0.43982297,-0.02321288,-0.2919936
1764917091220,-6.8785415,3.098097,7.905654,-0.50823987,-0.047647487,-0.17470746
1764917091278,-7.2448545,2.8107927,9.763555,-0.43249258,0.112399206,-0.015882496
1764917091330,-6.567295,3.4404678,9.947908,-0.28099802,0.2687807,0.13194689
1764917091383,-5.0014873,4.721366,10.156203,-0.061086524,-0.14905111,0.2443461
1764917091436,-4.525041,4.642357,10.6398325,0.058643065,-0.019547688,0.2602286
1764917091489,-4.213795,4.6902413,10.33098,0.21624629,0.14172074,0.25778514
1764917091543,-3.3446999,5.4539914,8.37013,0.4654793,0.33108896,0.22235495
1764917091601,-3.0478187,5.849035,6.8761473,0.5143485,0.2406809,0.16737708
1764917091656,-2.9975405,5.5737014,5.5856724,0.46792278,-0.013439035,0.059864793
1764917091709,-2.791639,5.1475334,5.2600613,0.43249258,0.13072516,0.02565634
1764917091764,-3.1411927,5.7628436,4.8985367,0.40683624,0.07086037,-0.015882496
1764917091818,-3.4715924,5.935226,4.5657425,0.31520647,0.12095132,-0.0842994
1764917091871,-3.5793316,6.1770406,4.5058875,0.2687807,0.16249016,-0.10140363
1764917091929,-3.9480386,6.030994,4.537012,0.21746802,0.06719518,-0.1282817
1764917091983,-4.3358994,6.528988,4.9440265,0.13316862,0.036651913,-0.14660765
1764917092036,-4.525041,6.361394,5.0374002,0.111177474,0.056199603,-0.15515977
1764917092090,-4.673482,5.932832,5.374983,0.096516706,-0.037873644,-0.16371189
1764917092143,-4.618415,6.009446,5.195418,0.1441642,0.32253686,-0.13194689
1764917092198,-4.5058875,6.631939,4.793192,0.14049901,0.24923302,-0.13805555
1764917092252,-4.663905,6.694188,4.685453,0.09285152,0.1881465,-0.16249016
1764917092305,-5.1642933,6.0501475,5.4204726,0.030543262,0.017104227,-0.17470746
1764917092358,-5.1810527,5.884948,5.494693,0.04642576,-0.07086037,-0.17959438
1764917092418,-6.0477533,5.7604494,4.9919105,0.09285152,-0.052534413,-0.15515977
1764917092470,-6.184223,6.0381765,4.8003745,0.0720821,-0.13316862,-0.13194689
1764917092522,-5.4324436,7.0461354,4.584896,0.021991149,-0.38362336,-0.07452556
1764917092578,0.6751649,8.219295,5.5856724,-0.073303826,-1.0824533,-0.13561209
1764917092632,-3.9264908,7.443573,5.7365074,-0.02076942,-0.41416663,-0.17592919
1764917092684,-5.8801594,6.2464724,4.7381253,0.13561209,0.20280726,-0.24556783
1764917092737,-2.6384103,8.329428,5.2528787,0.25900686,-0.7318166,-0.11362094
1764917092790,-8.535329,5.085284,4.3143516,0.33964106,-0.15271631,-0.029321533
1764917092843,-7.551312,6.1387334,2.0111294,0.32253686,-1.7336355,-0.040317107
1764917092903,-5.547365,6.576872,2.8754363,-0.267559,-1.0555751,0.21135938
1764917092955,-6.0525417,3.9360676,6.3302693,-0.41416663,-0.4373795,0.39828414
1764917093009,-5.1259856,5.2409077,6.3350577,-0.4092797,-0.40194935,0.5180137
1764917093062,-2.8562827,4.5872903,7.5920134,-0.38362336,-0.7965683,0.53023106
1764917093118,-2.4756045,4.912902,7.3549876,-0.35430184,-0.70005155,0.51923543
1764917093173,-0.8714894,5.815516,8.295909,-0.32375857,0.012217305,0.44959682
1764917093226,-0.007182605,5.6096144,10.160992,-0.25411993,-0.38240165,0.33475417
1764917093280,0.33997664,5.729325,9.643845,-0.13194689,-0.27488935,0.26267207
1764917093338,-2.9257145,6.217742,6.9743094,-0.10873401,-0.007330383,0.14782938
1764917093393,-1.3694834,5.494693,7.8984714,-0.095294975,-0.28955013,0.17715092
1764917093453,-0.19393034,5.837064,8.195353,-0.039095376,-0.49968776,0.13927728
1764917093505,0.1340753,6.528988,7.16824,0.018325957,-0.4801401,0.040317107
1764917093558,0.9648633,6.7372837,7.0126166,-0.07696902,0.44348818,0.05375614
1764917093614,-2.540248,6.3542113,8.47308,-0.081855945,0.50946164,-0.0012217305
1764917093667,-1.8195933,7.45315,11.836933,-0.002443461,-0.15882497,0.06719518
1764917093721,-2.6623523,8.008605,16.270994,0.19425514,-0.04642576,0.12461651
1764917093774,-3.2106245,5.877765,21.475988,0.8918633,0.028099801,0.23335053
1764917093827,-2.60968,4.6830587,17.860744,1.5344934,-0.19547687,0.29565877
1764917093881,-1.9081788,4.072537,12.761095,1.890017,-0.20769419,0.33108896
1764917093935,0.17717093,4.912902,5.1547165,2.0964894,-0.51923543,0.23090707
1764917093988,0.48841715,5.0182467,3.347094,2.035403,-0.22602014,0.21013765
1764917094044,-0.18195933,4.84347,2.8993783,1.9596558,-0.13316862,0.1881465
1764917094104,0.9888053,4.7381253,1.7118542,1.8167132,-0.43249258,0.035430185
1764917094161,1.4197617,4.7740383,1.0462662,1.7592919,-0.7867944,-0.105068825
1764917094216,1.2761095,5.779603,-2.135628,1.5931365,-0.6389651,-0.33964106
1764917094271,1.7764976,5.439626,-1.9560628,1.4746287,-0.31031954,-0.42394048
1764917094324,-0.4357447,5.650316,-2.4947581,1.3878858,0.16982053,-0.44348818
1764917094377,-1.7812861,6.5241995,-3.6296098,1.2351695,0.10262536,-0.41050145
1764917094431,-2.1571758,6.7851677,-4.546589,1.1508701,0.12950343,-0.3481932
1764917094486,-2.4588451,7.541735,-6.0860605,1.0360274,0.061086524,-0.29810223
1764917094539,-2.6839,8.049306,-9.157822,0.7147123,-0.12217305,-0.172264
1764917094593,-3.3063924,8.334216,-9.902418,0.49602258,0.017104227,-0.10140363
1764917094655,-3.2992098,7.9511437,-9.452309,-0.02321288,-0.06841691,0.062308256
1764917094707,-2.822764,7.2711906,-9.303867,-0.2321288,-0.21746802,0.13072516
1764917094760,-1.922544,6.1938,-9.433155,-0.43127087,-0.16615535,0.18448131
1764917094812,-2.0925324,2.932897,-15.641319,-0.98349303,0.065973446,0.22602014
1764917094866,-2.432509,1.6112977,-18.710686,-1.4404203,0.5534439,0.23579398
1764917094923,-1.5370775,1.079785,-17.176003,-2.1160371,0.68661255,0.19792034
1764917094976,-1.0295067,-2.695871,-6.921637,-3.4147367,0.20158553,0.13805555
1764917095028,-0.581791,-4.546589,-2.6048915,-3.7678168,0.3494149,0.15515977
1764917095081,0.39264908,-5.8921304,2.2457612,-3.935194,0.14538592,0.09285152
1764917095138,0.090979666,-8.329428,9.397242,-3.9461894,0.10262536,-0.04520403
1764917095192,-2.2768857,-8.980651,13.5296335,-3.8545597,-0.09896017,-0.0842994
1764917095245,-2.1428106,-8.099585,19.184738,-3.6297612,-0.35918877,0.034208454
1764917095299,1.6424223,-3.3255463,30.44467,-2.5008824,-0.38973203,0.17837265
1764917095353,1.9608512,-0.2777274,32.776623,-1.6811012,-0.31031954,0.112399206
1764917095406,1.328782,2.56419,32.71437,-0.87109387,-0.12461651,0.07452556
1764917095459,0.93373865,3.6415808,33.360806,0.5546656,0.12217305,-0.007330383
1764917095511,-0.24660277,1.8435353,34.186806,1.2547172,0.15027285,-0.010995574
1764917095564,-0.4285621,-2.2505496,32.790985,2.021964,0.4642576,0.05009095
1764917095622,-0.8355764,-8.429984,21.332336,3.3426547,0.37873647,0.15882497
1764917095676,0.35434186,-9.045294,15.21994,3.717726,0.09773844,0.15882497
1764917095730,2.4013844,-9.054871,6.3685765,3.9901717,-0.5839872,-0.11362094
1764917095789,1.6950948,-8.367735,2.5115175,3.935194,-0.2919936,-0.2846632
1764917095842,-0.1316811,-7.0940194,-0.36391866,3.789808,-0.04886922,-0.32742378
1764917095896,-1.115698,-4.3837833,-4.9655743,3.4037411,0.30787608,-0.21991149
1764917095950,-1.1109096,-3.3782187,-7.326257,3.1667254,0.17470746,-0.15393804
1764917096003,-1.2880806,-1.9847932,-9.540894,2.8942795,0.27000242,-0.08674286
1764917096056,-1.8411411,0.92895025,-13.275848,2.2699752,0.30787608,0.039095376
1764917096109,-1.7286136,2.6839,-15.969325,1.9010127,0.112399206,0.0842994
1764917096162,-1.6041151,4.0318356,-17.211916,1.473407,0.20158553,0.12705997
1764917096214,-0.2681506,5.614403,-18.772936,0.548557,-0.16493362,0.14905111
1764917096267,-0.5506664,5.6551046,-19.146431,0.07574729,0.02687807,0.14172074
1764917096324,-0.62967503,5.48751,-18.598158,-0.38606682,-0.04886922,0.12950343
1764917096377,-0.91219085,3.4284968,-16.625336,-1.346347,-0.08552113,0.16982053
1764917096429,-0.1316811,1.8507179,-15.557523,-1.7654005,-0.27855456,0.17348573
1764917096481,-0.023942016,-0.035913024,-13.8241205,-2.1697934,-0.02443461,0.19058995
1764917096533,0.89543146,-3.4739866,-8.3629465,-2.910162,0.23457226,0.034208454
1764917096588,-0.6512229,-3.2249897,-8.288726,-3.2449162,0.07086037,-0.029321533
1764917096641,-1.5442601,-4.9344497,-5.2648497,-3.6468656,0.017104227,-0.02687807
1764917096693,-0.7134721,-7.5441294,2.0231004,-4.2650614,-0.004886922,0.14660765
1764917096746,0.34955344,-8.889671,6.8689647,-4.3725734,0.11728613,0.19547687
1764917096799,2.15957,-9.809045,12.74673,-4.321261,-0.1282817,0.16737708
1764917096851,2.5330653,-7.735666,26.266787,-3.4709363,-0.593761,0.05497787
1764917096904,2.7246015,-4.7429137,30.700848,-2.7708848,-0.56321776,0.047647487
1764917096960,2.183512,-0.8690952,31.380802,-1.9657644,0.04153884,0.028099801
1764917097013,0.91937345,4.8482585,31.165323,-0.5009095,0.25778514,-0.07452556
1764917097066,0.89543146,4.7381253,31.4646,0.15515977,0.119729586,-0.07819075
1764917097121,0.8523358,3.3566709,29.604303,0.816116,0.26389378,-0.05375614
1764917097178,1.0486604,-0.9600749,25.615564,2.0378466,0.35063666,-0.056199603
1764917097231,0.60333884,-2.8395233,22.625206,2.5644124,0.38606682,-0.061086524
1764917097284,0.055066638,-4.6232033,18.933348,2.9981265,0.36896262,-0.032986723
1764917097336,-0.6967127,-6.55293,10.752359,3.530801,0.51068336,0.07819075
1764917097396,-0.50757074,-6.6726403,7.5944076,3.6370916,0.5510005,0.16371189
1764917097450,-0.60333884,-6.2345014,2.2218192,3.707952,0.21991149,0.24556783
1764917097504,-0.107739076,-5.947197,-0.92416185,3.6981783,0.002443461,0.267559
1764917097557,0.5506664,-4.4699745,-4.5322237,3.5479054,0.2284636,0.2773328
1764917097612,2.8898015,-0.37110126,-12.337321,3.0604348,0.7501425,0.36896262
1764917097665,2.2864625,2.018312,-15.849615,2.6303856,-0.02565634,0.24190263
1764917097719,1.8267759,3.0909145,-16.627731,1.9608774,-0.118507855,0.16493362
1764917097773,1.163582,4.1802764,-16.263813,1.2253957,-0.24678956,0.05009095
1764917097826,0.6823475,4.6782703,-16.527174,0.7012733,-0.18448131,0.008552114
1764917097882,0.7493851,4.7285485,-16.543934,0.30176744,-0.17470746,-0.02565634
1764917097934,0.94570965,3.6990416,-17.132908,-0.5363397,-0.058643065,-0.12339478
1764917097990,1.4341269,3.028665,-18.004396,-0.98349303,0.039095376,-0.17592919
1764917098046,1.0342951,2.5498247,-17.867928,-1.4782939,-0.0842994,-0.24801129
1764917098099,0.28491,-0.1316811,-16.01721,-2.5314255,-0.172264,-0.30543262
1764917098152,0.47405192,-1.8531121,-13.290214,-3.0176742,-0.13439035,-0.31642818
1764917098205,0.78290397,-3.1890767,-9.624691,-3.4599407,-0.02687807,-0.3481932
1764917098259,-0.260968,-5.861006,-1.6950948,-4.125784,0.13683382,-0.47647488
1764917098312,2.2002714,-7.4962454,1.3263878,-4.3689084,-0.11484267,-0.5180137
1764917098367,-1.3215994,-9.375694,9.320627,-4.4263296,0.376293,-0.6951646
1764917098419,-2.7700913,-9.938332,16.287754,-3.8606684,-0.16249016,-0.74281216
1764917098471,-3.5745432,-7.589619,18.634071,-3.431841,-0.15271631,-0.6218608
1764917098525,-5.5282116,-5.542577,21.959618,-2.978579,-0.54611355,-0.52778757
1764917098578,-4.1299977,-1.3503298,26.625917,-1.9669861,-0.516792,-0.2284636
1764917098631,-3.892972,0.30885202,28.8214,-1.3683381,-0.10262536,-0.08674286
1764917098684,-2.944868,1.7956513,30.274681,-0.6951646,-0.21135938,-0.017104227
1764917098738,-3.7565024,1.3359646,31.883585,0.6780604,0.19181168,0.14538592
1764917098795,-4.367024,-0.56982,31.5053,1.391551,0.61941737,0.28344148
1764917098850,-4.7907977,-5.0278234,25.012226,2.6951375,0.5045747,0.54611355
1764917098903,-4.7429137,-7.074866,20.058622,3.164282,0.2883284,0.6914995
1764917098956,-2.8874073,-8.961497,16.110582,3.5417967,0.042760566,0.79045963
1764917099011,-0.095768064,-10.383653,8.111555,3.9852848,-0.2565634,0.73426
1764917099064,0.61530983,-10.577583,4.429273,4.097684,-0.52656585,0.5864306
1764917099117,0.12928689,-9.603143,0.06943185,4.0915756,-0.2602286,0.5021312
1764917099169,-0.06943185,-5.947197,-7.0461354,3.7836993,0.43249258,0.44715336
1764917099223,0.9792285,-3.8163576,-10.42196,3.4953709,0.18692477,0.4801401
1764917099279,1.520318,-1.9656396,-12.988544,3.0983086,0.657291,0.53878313
1764917099332,2.372654,1.9536686,-18.590977,2.2626448,0.06963864,0.3921755
1764917099388,2.1930888,3.5170822,-19.22544,1.7397442,-0.16493362,0.29443705
1764917099441,1.8602947,4.4963107,-19.586964,1.2168436,-0.089186326,0.21868975
1764917099494,1.8076223,4.31914,-18.863914,0.2284636,-0.09407325,0.08552113
1764917099549,1.8507179,4.3502645,-18.794483,-0.23335053,0.013439035,0.032986723
1764917099603,2.0757728,3.928885,-17.973272,-0.69027776,-0.064751714,-0.039095376
1764917099667,3.5242648,0.85473,-14.647726,-1.5491543,-0.061086524,-0.18936823
1764917099720,4.975151,-1.3000516,-12.955026,-1.8851302,0.12095132,-0.3481932
1764917099773,1.6711528,-1.6663644,-14.204799,-2.6254988,0.61086524,-0.73548174
1764917099825,0.6464345,-2.2984335,-13.747506,-3.1386256,0.019547688,-0.88208944
1764917099880,-0.1316811,-4.185065,-11.106702,-3.6713002,-0.103847094,-0.9114109
1764917099934,0.045489833,-9.112331,-0.39504328,-4.486194,-0.52412236,-0.92485
1764917099988,-0.06464344,-10.445902,5.3438582,-4.6486845,-0.18936823,-0.8405506
1764917100041,-1.0845734,-13.280637,13.467384,-4.5912633,-0.30176744,-0.8527679
1764917100094,-3.691859,-8.987833,23.264458,-3.626096,-0.2932153,-0.74281216
1764917100148,-5.245696,-5.121197,24.011448,-3.032335,-0.38606682,-0.63285637
1764917100201,-6.229713,-2.111686,27.341784,-2.4410176,-0.32742378,-0.47769663
1764917100253,-5.66947,2.7844565,29.211655,-1.1227703,-0.3481932,-0.12217305
1764917100304,-5.9448028,3.490746,30.68409,-0.34208453,-0.2968805,0.05375614
1764917100356,-5.142745,2.7126305,32.683247,0.17837265,-0.103847094,0.16249016
1764917100409,-4.0533834,0.1340753,29.759928,1.6896533,0.30787608,0.35308012
1764917100463,-3.7924154,-2.6623523,25.158272,2.4764478,0.47158796,0.46914452
1764917100519,-3.8426938,-4.819528,20.752941,2.9749138,0.43249258,0.5656612
1764917100571,-2.779668,-8.157045,12.11466,3.5882225,0.22724187,0.7305948
1764917100624,-1.4341269,-8.932767,8.106767,3.7641516,0.07819075,0.7464773
1764917100677,-1.1707647,-9.009381,4.771644,3.8631117,0.052534413,0.7476991
1764917100731,-0.08619126,-7.357382,-2.9472623,3.8606684,-0.047647487,0.7672467
1764917100786,-0.016759412,-4.4819455,-7.4746976,3.6248744,-0.3042109,0.71959925
1764917100839,0.80924016,-2.7605145,-10.065224,3.3035593,-0.41050145,0.6621779
1764917100891,1.9416976,0.93852705,-14.20001,2.565634,-0.2406809,0.54000485
1764917100943,1.9057846,2.1547816,-14.927848,2.147802,-0.16737708,0.45937067
1764917100999,2.3127987,3.6894648,-15.799337,1.7214183,-0.15027285,0.3811799
1764917101051,1.982399,5.3725886,-16.021997,0.8894198,-0.05009095,0.24923302
1764917101103,2.066196,5.770026,-15.698781,0.50946164,-0.02687807,0.19303341
1764917101156,2.3247697,5.568913,-16.263813,0.16249016,0.16249016,0.13561209
1764917101209,2.3343468,5.3558292,-16.445772,-0.5925393,0.028099801,-0.017104227
1764917101264,2.4229321,4.2281604,-15.904682,-0.9981538,0.013439035,-0.07452556
1764917101317,2.8083985,2.8107927,-15.401899,-1.3768903,-0.02687807,-0.15027285
1764917101371,3.3423057,-0.29688102,-13.153744,-2.1368067,0.2125811,-0.40683624
1764917101423,2.1188686,-1.0941502,-12.471396,-2.488665,0.5338962,-0.5681047
1764917101479,1.7381904,-2.315193,-10.527305,-2.869845,0.33964106,-0.73792523
1764917101534,-1.5753847,-5.777209,-6.117185,-3.6554177,0.02565634,-0.9089675
1764917101588,-2.1428106,-6.993463,-3.1627405,-3.9364157,0.021991149,-0.8417723
1764917101646,-0.6895301,-9.074024,7.548918,-4.288274,-0.39584067,-0.6792821
1764917101697,-1.6256629,-9.5385,13.591883,-4.1331143,-0.3408628,-0.59498274
1764917101748,-0.557849,-9.090784,17.183186,-3.930307,-0.5839872,-0.5448918
1764917101804,-2.4636335,-5.106832,24.181437,-3.0176742,-0.14538592,-0.376293
1764917101857,-3.821146,-3.095703,27.621904,-2.4471262,-0.13683382,-0.32620203
1764917101910,-3.3854012,-0.545878,30.660147,-1.7837266,-0.27366763,-0.23579398
1764917101963,-3.526659,1.8507179,35.041534,-0.21502456,-0.02687807,-0.05375614
1764917102017,-3.7253778,1.6184803,34.881126,0.6450737,0.20647246,0.04153884
1764917102070,-3.9983168,-0.61770403,35.07984,1.500285,0.41050145,0.13927728
1764917102123,-3.8618474,-3.13401,30.846895,2.3445008,0.54611355,0.25045475
1764917102177,-3.8355112,-8.169016,20.288465,3.4843755,0.10995574,0.48747048
1764917102229,-3.1028855,-9.114726,14.070724,3.8166862,0.11362094,0.5864306
1764917102280,-0.9768343,-10.029311,9.504981,3.9852848,-0.18448131,0.59742624
1764917102333,-0.15801731,-8.985439,2.4372973,3.98895,0.10751228,0.59131753
1764917102386,-0.31603462,-8.042124,0.20829555,3.9058723,0.02565634,0.5558874
1764917102439,-0.34237084,-7.752425,-1.4173675,3.8240163,-0.28344148,0.50946164
1764917102491,0.2896984,-5.2648497,-7.153875,3.540575,0.11362094,0.46670106
1764917102543,0.093373865,-3.5098996,-9.907207,3.296229,0.43249258,0.51068336
1764917102596,0.8834604,-2.3798366,-10.644621,2.9846876,0.32253686,0.5497787
1764917102650,1.8052281,-0.25617957,-15.45936,2.3921483,-0.12339478,0.5131268
1764917102706,2.5474305,0.91458505,-18.344374,2.0158553,-0.07452556,0.41905355
1764917102758,2.7222073,2.5330653,-21.42571,1.5589281,-0.26389378,0.3042109
1764917102810,2.861071,4.6255975,-23.568521,0.40194935,0.04886922,0.112399206
1764917102869,2.882619,3.964798,-22.776041,-0.22235495,0.06719518,0.037873644
1764917102922,2.8682537,0.9888053,-20.020315,-1.3854424,-0.33353242,-0.12339478
1764917102973,2.801216,-0.4189853,-18.499996,-1.8887954,-0.20280726,-0.1966986
1764917103024,2.4061728,-2.0374656,-15.840038,-2.3554964,-0.37873647,-0.28588495
1764917103075,2.0829554,-3.0573955,-13.515268,-2.7354546,-0.10995574,-0.34208453
1764917103126,0.32561144,-4.1299977,-8.0924015,-3.440393,-0.15515977,-0.43371433
1764917103179,-0.02873042,-4.489128,-5.046977,-3.79836,-0.31031954,-0.44226643
1764917103242,-0.8355764,-6.631939,1.3431472,-4.170988,-0.39461896,-0.37507126
1764917103294,-0.21308395,-7.6949644,4.4963107,-4.2320743,-0.39706242,-0.24801129
1764917103345,-0.7110779,-8.695741,11.03727,-4.197866,-0.6780604,-0.20525073
1764917103397,0.40222588,-7.61835,16.160862,-3.9474113,-0.5839872,-0.059864793
1764917103449,1.1324574,-3.0430303,22.809559,-2.9773571,-0.66339964,0.058643065
1764917103503,1.1109096,-0.7038953,25.412056,-2.420248,-0.6414085,0.06719518
1764917103556,0.9552865,2.0231004,26.738445,-1.7935003,-0.31031954,0.10140363
1764917103609,2.5019407,5.4922986,30.727184,-0.5497787,-0.012217305,0.018325957
1764917103662,3.347094,5.3725886,32.50129,0.172264,0.12339478,-0.06963864
1764917103715,2.243367,4.0342298,32.43425,0.9297369,0.29565877,-0.15882497
1764917103786,1.541866,-0.93613285,27.155035,2.3860397,0.43127087,-0.21746802
1764917103839,0.58418524,-3.3638535,22.888569,2.9565878,0.45570546,-0.20647246
1764917103890,0.21068975,-7.764396,14.4130945,3.7543778,0.16737708,-0.18081611
1764917103943,-0.04070143,-9.205706,10.196905,3.9767327,-0.111177474,-0.17837265
1764917103995,0.5410896,-10.618284,6.5816603,4.102571,0.2883284,-0.1441642
1764917104048,-0.15801731,-10.850522,-0.7110779,4.162436,0.46303585,0.0036651916
1764917104102,0.8403648,-9.354146,-4.745308,4.0781364,0.37873647,0.052534413
1764917104156,0.29448682,-8.130709,-7.8865004,3.9156463,0.20769419,0.03176499
1764917104208,0.5291186,-2.4636335,-17.676392,3.2192597,-0.10995574,-0.061086524
1764917104261,0.641646,-0.7350199,-20.408175,2.692694,-0.119729586,-0.12705997
1764917104314,-0.20111294,0.79248077,-22.37142,2.1111503,-0.16615535,-0.1881465
1764917104366,-1.1683705,2.1619642,-22.218191,0.84665924,-0.064751714,-0.18936823
1764917104420,-1.1013328,1.9608512,-21.449654,0.28955013,-0.039095376,-0.17348573
1764917104476,-1.1779473,2.1284454,-21.18629,-0.2443461,0.034208454,-0.16493362
1764917104529,-0.5410896,0.4237737,-19.007566,-1.4416419,-0.043982297,-0.16615535
1764917104582,-1.340753,-1.2641385,-18.095377,-1.9327776,-0.05131268,-0.18081611
1764917104634,-2.1188686,-2.2649148,-17.228676,-2.4251351,0.0012217305,-0.13927728
1764917104686,-1.1540052,-4.2904096,-13.623008,-3.3756413,0,-0.029321533
1764917104746,0.30166942,-3.8833952,-10.486604,-3.758043,0.21502456,-0.062308256
1764917104801,1.1204864,-6.0740895,-3.9145198,-4.0598106,-0.07452556,-0.1685988
1764917104853,-0.10055647,-8.267179,0.01436521,-4.515516,-0.28221974,-0.3555236
1764917104905,1.2808979,-10.984597,3.3327289,-4.619363,-0.3042109,-0.36651915
1764917104960,0.44771573,-13.113043,7.855376,-4.6205845,-0.56321776,-0.43371433
1764917105013,-2.8443117,-12.569559,18.08101,-4.125784,-0.56321776,-0.25900686
1764917105065,-4.309563,-10.022128,27.593174,-3.5515707,-1.0348058,-0.118507855
1764917105121,-2.705448,-5.485116,32.008083,-2.7305677,-0.6536258,0.10751228
1764917105178,-0.2873042,1.1779473,34.0647,-0.97249746,-0.24556783,0.23457226
1764917105231,0.78050977,2.992752,33.947388,-0.18448131,-0.23823744,0.19303341
1764917105283,-0.7302315,-0.033518825,35.606567,1.3756685,0.07941248,0.21991149
1764917105336,-0.36152446,-3.1794999,33.332077,2.271197,0.10751228,0.24312437
1764917105390,-0.29448682,-6.658275,27.404032,3.0677652,0.41905355,0.3200934
1764917105464,1.6041151,-10.036493,14.276625,4.047593,0.05375614,0.2602286
1764917105522,0.5291186,-10.510546,9.19134,4.269948,0.16982053,0.2321288
1764917105573,-0.5770026,-11.109096,3.0909145,4.456873,-0.22724187,0.2724459
1764917105625,0.5650316,-9.847352,-0.4261679,4.383569,-0.11728613,0.22357668
1764917105683,1.5945383,-9.052477,-5.473145,4.125784,-0.0012217305,-0.009773844
1764917105735,0.878672,-6.993463,-10.299856,3.938859,-0.052534413,-0.08307768
1764917105787,-0.641646,-5.4803276,-13.905523,3.5906658,0.23701571,-0.061086524
1764917105845,-1.0390835,-0.50278234,-21.210234,2.4507914,0.10751228,-0.040317107
1764917105898,-1.13964,1.1492168,-22.515072,1.8680259,0.010995574,-0.015882496
1764917105950,-1.0151415,2.5761611,-22.34269,1.2498302,-0.019547688,0.012217305
1764917106002,-0.49559975,2.8993783,-22.067358,0.10995574,-0.06963864,0.029321533
1764917106054,-0.1340753,1.8028339,-21.746534,-0.44959682,-0.17959438,0.018325957
1764917106109,-0.85473,0.81642276,-21.9261,-1.0030408,-0.052534413,0.019547688
1764917106163,0.36631286,-2.1404164,-22.723368,-2.2162192,0.0012217305,-0.015882496
1764917106217,1.5753847,-3.217807,-22.340296,-2.8600712,0.22724187,-0.09162979
1764917106269,1.7142484,-4.429273,-19.606117,-3.5295794,0.23335053,-0.267559
1764917106321,0.50757074,-9.504981,-9.543288,-4.6108108,0.9761627,-0.6951646
1764917106373,-0.20590134,-12.040441,-4.7381253,-4.9052477,0.42638394,-0.91507614
1764917106425,-0.06943185,-14.4370365,-2.2601264,-5.0335298,1.473407,-0.9932669
1764917106478,-1.7310078,-18.088194,4.6160207,-5.059186,0.6792821,-1.346347
1764917106530,-3.833117,-20.15439,14.15452,-4.940678,0.40439278,-0.9016371
1764917106583,-3.7014358,-17.786524,21.39698,-4.4580946,-0.22968534,-0.92485
1764917106637,-8.841787,-10.929531,30.066385,-3.6432004,-0.4129449,-0.79412484
1764917106690,-8.248025,-2.7485435,31.495724,-1.9327776,-0.45570546,-0.2761111
1764917106747,-5.5880666,-1.4676456,32.146946,-1.1716396,-0.41172317,-0.08552113
1764917106805,-4.8961425,0.062249243,34.033577,0.34208453,-0.65240407,0.16737708
1764917106858,-2.1930888,-1.2880806,33.267433,1.1704178,-1.6029104,0.16249016
1764917106914,-0.30645782,-2.9257145,29.381643,1.9242256,-1.0910053,0.17959438
1764917106968,1.2976574,-6.6893997,19.740192,3.0030136,-0.816116,-0.07696902
1764917107020,1.079785,-7.2807674,14.652514,3.35365,-1.0152581,-0.20647246
1764917107073,2.2529438,-7.845799,10.362105,3.5845573,-1.409877,-0.45570546
1764917107125,1.8315643,-7.2089415,5.3079453,3.694513,-0.8185594,-0.84788096
1764917107176,3.4979286,-7.3286514,4.072537,3.6981783,-0.5864306,-1.0946705
1764917107227,2.291251,-7.8050976,1.7405846,3.7189476,0.45570546,-1.0714576
1764917107277,1.2018893,-6.6630635,-4.0198646,3.7543778,1.2437216,-0.7415904
1764917107328,-0.9792285,-5.6431336,-6.991069,3.6994,1.0861185,-0.64996064
1764917107381,-2.3104045,-4.2185836,-11.008539,3.5124753,0.6206391,-0.56199604
1764917107432,-3.0454245,-2.6743233,-14.516045,3.2253685,0.30298916,-0.43982297
1764917107485,-3.9815574,1.1755531,-19.5726,2.3811526,-0.1563815,-0.22113322
1764917107535,-3.6511576,2.3008277,-21.222204,1.8643607,-0.14049901,-0.13439035
1764917107586,-3.514688,3.1196449,-21.490355,1.3182472,-0.16249016,-0.0720821
1764917107637,-3.572149,3.502717,-22.629995,0.25045475,0.052534413,0.05131268
1764917107688,-3.8163576,2.6719291,-23.851038,-0.312763,-0.034208454,0.103847094
1764917107739,-3.8786068,0.8331822,-25.53895,-0.9334021,0.06352998,0.2003638
1764917107790,-3.4356794,-1.9728222,-28.531702,-1.613906,-0.2724459,0.24678956
1764917107841,-1.6927006,-6.093243,-24.763227,-3.363424,-0.25778514,0.4361578
1764917107892,-1.1683705,-8.9040365,-17.372328,-4.1404448,-0.38362336,0.453262
1764917107943,0.11971009,-10.70687,-9.473856,-4.664567,0.29810223,0.51923543
1764917107994,-0.6655881,-12.567164,-3.6870706,-4.982217,1.2681563,0.40439278
1764917108045,-0.4333505,-17.025167,-0.4333505,-5.1202726,2.64749,-0.28955013
1764917108097,-2.4133554,-18.574217,4.7022123,-5.1471505,1.4355333,-0.81000733
1764917108150,-4.1826706,-19.275719,10.85531,-4.9076915,1.4489723,-1.0445796
1764917108202,-5.753267,-12.679692,25.543737,-3.8789942,-0.8881981,-0.99204516
1764917108255,-5.509058,-9.208099,29.132647,-3.1337388,-0.95417154,-0.7635816
1764917108307,-8.152257,-4.2425256,32.819717,-2.1270328,-0.23457226,-0.40317106
1764917108359,-7.6949644,0.7086837,36.504395,-0.7012733,-0.41172317,-0.017104227
1764917108412,-4.5082817,-0.7230489,37.8643,0.38973203,-0.8857546,0.17592919
1764917108467,-4.0414124,-2.2337902,37.916973,1.2962561,-0.5681047,0.3323107
1764917108519,-0.79966336,-8.722076,27.890055,3.0543263,0.4129449,0.4813618
1764917108573,0.94570965,-10.960655,21.423317,3.6798522,-0.68294734,0.31520647
1764917108628,1.5897499,-12.186486,14.793773,4.1001277,-0.6450737,0.080634214
1764917108680,1.4915876,-12.4785795,4.4005427,4.454429,-0.002443461,-0.12339478
1764917108731,0.8451532,-11.384429,1.42455,4.4446554,0.21135938,-0.1563815
1764917108782,0.9504981,-11.449073,-0.521936,4.3982296,0.5363397,-0.12950343
1764917108837,-0.45729253,-10.9582615,-3.7445314,4.283387,-1.237613,-0.20891592
1764917108890,1.9153614,-7.1945763,-10.512939,4.1636577,-2.2186625,-0.6939429
1764917108942,-1.6400281,-8.109161,-12.155362,3.8496728,-1.1899655,-0.86132
1764917108996,-4.7309427,-2.954445,-21.250935,2.9358184,-0.27122417,-0.78801614
1764917109050,-6.2584434,-0.44532153,-25.11757,2.3359487,0.49602258,-0.6206391
1764917109104,-7.029376,1.6687586,-25.598804,1.640784,0.112399206,-0.46181414
1764917109157,-7.1706343,3.1603463,-26.580427,0.1881465,-0.10751228,-0.064751714
1764917109210,-6.5720835,2.1906946,-25.922022,-0.52778757,-0.06719518,0.12705997
1764917109263,-5.793968,-0.22266077,-25.82386,-1.2119566,-0.2761111,0.30298916
1764917109320,-5.7628436,-4.5202527,-22.874203,-2.6230555,-0.111177474,0.657291
1764917109373,-3.4500446,-5.935226,-19.062634,-3.3060026,-0.2968805,0.7696902
1764917109425,-1.3383588,-7.311892,-13.199234,-3.8570032,0.5375614,0.8527679
1764917109481,0.12928689,-8.750807,-4.465186,-4.5265117,5.9938097,0.1685988
1764917109539,0.61770403,-10.776301,-2.6479871,-4.4409904,5.154481,-0.9896017
1764917109590,1.70946,-11.061212,-1.5562311,-4.1966443,3.3499851,-2.003638
1764917109641,-2.0398598,-15.028404,0.62488663,-3.7617083,0.50335294,-3.095865
1764917109693,-8.935161,-15.598224,5.8681884,-3.6994,-4.0463715,-3.1716123
1764917109745,-9.892841,-14.721947,16.429012,-3.684739,-2.0024164,-2.2553146
1764917109798,-12.006922,-6.6367273,30.162153,-2.629164,-0.12217305,-1.1166617
1764917109850,-14.669273,-4.537012,33.743877,-1.7910569,0.119729586,-0.8014552
1764917109904,-14.738706,-2.0566192,33.588257,-0.8918633,0.13927728,-0.47647488
1764917109958,-16.381128,-0.01436521,30.121452,0.6230826,-0.13805555,0.19425514
1764917110010,-16.30212,-1.5610195,29.364883,1.2449434,-0.63041294,0.5363397
1764917110063,-12.430696,-6.0142345,28.067226,1.9523253,-0.9822713,0.8491027
1764917110116,-4.1036615,-11.482592,21.485565,3.395189,-1.6346754,1.0409144
1764917110174,-2.5737667,-12.540829,16.596605,3.957185,-0.5363397,1.0030408
1764917110227,-2.1619642,-13.306973,11.113884,4.344474,-1.2449434,0.8051204
1764917110279,-0.45250413,-11.865664,1.6112977,4.607146,0.17959438,0.5314528
1764917110331,0.49799395,-11.87524,-2.468422,4.5949283,-0.25778514,0.3933972
1764917110384,-1.4149733,-8.008605,-4.8698063,4.3640213,1.2840388,0.54611355
1764917110437,1.5251064,-5.4922986,-13.984532,4.0011673,-1.4367551,0.535118
1764917110489,-0.36631286,-5.020641,-14.326903,3.644422,-0.032986723,0.5729916
1764917110541,0.47165772,-2.348712,-19.440918,3.2241468,-0.6218608,0.46670106
1764917110594,2.5091233,1.4580688,-25.395298,1.998751,-0.105068825,0.3933972
1764917110646,2.7605145,3.4979286,-26.994625,1.2669345,0.22602014,0.3005457
1764917110699,2.4133554,3.6535518,-26.477476,0.48624873,-0.014660766,0.18325958
1764917110753,3.1986535,2.8754363,-27.281929,-0.27366763,-0.3567453,0.059864793
1764917110809,5.221754,-1.970428,-28.943504,-1.8277088,0.23823744,-0.118507855
1764917110861,5.097255,-5.094861,-28.936321,-2.692694,0.6291912,-0.3494149
1764917110915,2.0159178,-11.08276,-20.776882,-4.500855,-0.8002335,-0.9272934
1764917110968,0.81163436,-14.001291,-13.266272,-5.191133,-1.7910569,-0.7501425
1764917111021,3.0573955,-17.769766,-7.2687964,-5.6236253,0.17959438,-0.40683624
1764917111078,-4.441244,-22.390574,8.264784,-5.1984634,1.269378,-1.4086553
1764917111130,-6.2464724,-21.775265,15.150508,-4.673119,0.47158796,-1.5308284
1764917111183,-6.0884547,-17.549498,21.5957,-4.234518,0.21746802,-1.3756685
1764917111240,-13.678074,-7.4986396,29.096733,-2.7207937,-0.43127087,-1.0225884
1764917111293,-13.232753,-2.4708161,28.373684,-2.01219,-0.6805039,-0.6072
1764917111346,-11.492168,-1.541866,29.709648,-1.3451253,-0.45448375,-0.22602014
1764917111398,-8.544906,0.7469909,34.785355,0.089186326,-0.9932669,0.33964106
1764917111451,-7.007828,-0.9935937,38.2354,0.9334021,-1.0775663,0.4801401
1764917111504,-4.1491513,-4.06296,37.411797,1.9669861,-0.6988298,0.63041294
1764917111559,-0.4309563,-12.835316,25.898079,3.8179078,-0.14294247,0.5021312
1764917111611,-0.48123455,-15.045163,16.417042,4.3640213,-0.2773328,0.3848451
1764917111662,0.28491,-14.458584,8.255207,4.6169195,0.4972443,0.3921755
1764917111715,0.21308395,-11.573571,-2.777274,4.564385,-0.84421575,0.16615535
1764917111767,0.0047884034,-9.696517,-6.3925185,4.338365,-0.7110472,0.029321533
1764917111822,0.20829555,-7.1251445,-9.636662,4.043928,-0.7110472,-0.10873401
1764917111877,-0.8810662,-2.554613,-15.722723,3.2302554,-0.22357668,-0.09773844
1764917111930,-1.5825673,0.20590134,-18.09777,2.7452285,-0.07086037,-0.07696902
1764917111983,-2.3295584,2.2984335,-19.594147,2.1966715,-0.10140363,-0.05009095
1764917112035,-2.4516625,4.39336,-19.503166,1.1325442,-0.19181168,0.04153884
1764917112091,-2.3989902,4.996699,-18.725052,0.6401868,-0.018325957,0.112399206
1764917112145,-2.255338,5.109226,-17.762583,0.17715092,-0.064751714,0.14538592
1764917112197,-1.8124107,4.7022123,-14.659697,-0.6230826,-0.014660766,0.21502456
1764917112248,-1.4628572,4.4819455,-12.332533,-0.9419542,-0.06963864,0.24678956
1764917112299,-0.8690952,3.8618474,-10.254366,-1.2388347,-0.096516706,0.25534168
1764917112352,-1.0055647,4.259285,-7.0844426,-1.5222762,0.042760566,0.2687807
1764917112404,-1.6927006,4.915296,-5.4444146,-1.7153096,0.007330383,0.28221974
1764917112457,-0.9624691,5.631162,-5.0182467,-1.8387043,0.019547688,0.31642818
1764917112511,-0.62488663,7.455544,-1.2401965,-1.9486601,-0.19792034,0.35796702
1764917112561,0.8858546,6.71813,2.0949266,-1.9168952,-0.14660765,0.37507126
1764917112612,1.541866,7.48188,4.5298295,-1.8020525,0.16493362,0.3371976
1764917112664,1.4580688,7.9870567,5.777209,-1.6236799,0.37384954,0.26511553
1764917112715,1.1085154,9.375694,6.1100025,-1.2229522,0.23457226,0.095294975
1764917112767,1.436521,9.205706,6.505046,-1.0543534,-0.112399206,0.035430185
1764917112819,1.6639702,9.730036,6.2225304,-0.8881981,0.20769419,0.02076942
1764917112873,0.8499416,10.208876,6.3182983,-0.6010914,0.2846632,-0.06352998
1764917112925,0.79008657,10.060435,6.253655,-0.47769663,-0.04520403,-0.10995574
1764917112980,0.7134721,9.773131,6.0357823,-0.35185838,0.03176499,-0.11362094
1764917113036,0.7326257,9.0476885,5.6000376,-0.12461651,-0.05009095,-0.16371189
1764917113089,0.47165772,9.382876,4.548983,-0.04520403,0.30787608,-0.1685988
1764917113146,0.01436521,9.543288,3.1723173,-0.02076942,0.3921755,-0.18448131
1764917113198,-0.58418524,8.9279785,3.3159695,-0.007330383,0.062308256,-0.118507855
1764917113251,-0.8714894,8.331821,3.4596214,0.05375614,-0.012217305,-0.06352998
1764917113304,-0.9696517,7.9750857,3.2082303,0.12583824,-0.30787608,-0.034208454
1764917113357,-0.80684596,7.833828,2.9975405,0.12583824,-0.047647487,-0.008552114
1764917113411,-0.8834604,8.054094,3.3686419,0.04886922,0.50823987,0.013439035
1764917113465,-1.2018893,8.916007,3.5170822,0.0012217305,0.24556783,-0.02687807
1764917113517,-1.364695,10.395624,3.3686419,-0.06841691,-0.119729586,-0.05131268
1764917113571,-1.292869,11.358093,3.6631286,-0.1001819,-0.02687807,-0.02443461
1764917113625,-1.2378023,11.968615,4.1922474,-0.09407325,0.05009095,-0.0036651916
1764917113681,-0.85473,11.087548,4.173094,0.05497787,0.058643065,0.02687807
1764917113733,-0.9624691,9.083601,4.498705,0.10140363,0.12217305,0.06719518
1764917113786,-0.4285621,8.010999,4.5537715,0.14660765,0.19303341,0.08552113
1764917113838,-0.6368576,9.006987,4.6591167,0.23335053,0.1160644,0.10140363
1764917113892,-0.21547815,10.201694,5.032612,0.3042109,0.036651913,0.111177474
1764917113945,-0.06703765,11.312603,4.0557775,0.44348818,0.1881465,0.11728613
1764917113999,0.272939,9.593566,2.516306,0.6585127,0.31764993,0.089186326
1764917114051,-0.23463176,7.536947,1.5346833,0.73426,-0.25900686,0.056199603
1764917114104,-0.39743748,5.7987566,0.5410896,0.75991637,-0.09896017,0.06963864
1764917114157,-0.23223756,5.1475334,-1.7884687,0.4972443,-0.19303341,-0.043982297
1764917114213,-0.33039984,5.7365074,-1.2138603,0.24678956,1.269378,0.05009095
1764917114266,-0.61291564,9.069236,-1.70946,0.04153884,1.7592919,0.12705997
1764917114325,-6.6750345,0.40701428,6.847417,0.07696902,1.7434094,0.15760323
1764917114376,4.525041,8.688558,1.9033904,0.28710666,-0.5534439,0.05375614
1764917114429,-1.4796166,10.500969,0.2681506,0.24923302,-0.33841935,-0.043982297
1764917114482,-1.4891934,9.461885,0.22505496,0.20769419,0.13439035,0.02443461
1764917114534,0.2633622,9.672575,0.079008654,0.2003638,-0.15027285,-0.009773844
1764917114586,-2.0231004,9.809045,0.8403648,0.18448131,0.039095376,0.017104227
1764917114638,-0.37349546,9.837775,0.2681506,0.204029,-0.08307768,0.062308256
1764917114690,0.93852705,9.809045,-0.37588966,0.19303341,-0.06963864,0.04520403
1764917114743,0.14844051,9.811439,-0.09816227,0.17959438,-0.061086524,0.0061086523
1764917114798,-0.6895301,9.840169,-0.14844051,0.15760323,-0.017104227,-0.02076942
1764917114851,-0.58657944,9.801862,-0.35913026,0.15027285,-0.03176499,-0.012217305
1764917114904,-0.6943185,9.866506,-0.6871359,0.12950343,-0.015882496,0
1764917114956,-0.2657564,9.876082,-0.8403648,0.08307768,-0.009773844,0.0036651916
1764917115008,-0.31364042,9.861717,-0.78050977,0.058643065,-0.04642576,-0.0061086523
1764917115061,-0.51235914,9.878476,-0.85473,0.039095376,-0.05375614,-0.007330383
1764917115115,-0.770933,9.80665,-0.6919243,-0.008552114,0.002443461,0.0036651916
1764917115171,-0.5770026,9.821015,-0.47884035,-0.019547688,-0.008552114,0.014660766
1764917115223,-0.7374141,9.80665,-0.033518825,-0.03176499,0.021991149,0.021991149
1764917115276,-0.46686932,9.854534,0.088585466,-0.018325957,0.009773844,0.02565634
1764917115331,-0.15562311,9.8042555,-0.12689269,-0.009773844,-0.004886922,0.02321288
1764917115387,-0.61770403,9.840169,-0.01436521,-0.008552114,0.018325957,0.02321288
1764917115440,-0.48123455,9.830592,-0.08619126,-0.004886922,0.008552114,0.02687807
1764917115493,-0.15083471,9.7803135,-0.18674773,-0.002443461,0.010995574,0.032986723
1764917115546,-0.047884032,9.809045,-0.16759412,-0.002443461,0.013439035,0.02443461
1764917115605,-0.1388637,9.828198,-0.11252748,-0.002443461,0.013439035,0.012217305
1764917115658,-0.2825158,9.787497,0.062249243,0,0.009773844,0.009773844
1764917115711,-0.22266077,9.904813,-0.19871874,0.008552114,0.004886922,0.014660766
1764917115764,-0.30406362,9.842564,-0.23702596,0.008552114,0.007330383,0.013439035
1764917115817,-0.20111294,9.832987,-0.19871874,0.008552114,-0.002443461,0.013439035
1764917115873,-0.23702596,9.811439,-0.16998832,0.0036651916,0.009773844,0.007330383
1764917115925,-0.23942018,9.82341,-0.22026655,0.0061086523,0.004886922,0.0036651916
1764917115978,-0.32321724,9.82341,-0.18435353,0.002443461,0.0061086523,0.0036651916
1764917116032,-0.2825158,9.809045,-0.18435353,0.0012217305,0.018325957,0.0036651916
1764917116086,-0.22266077,9.792285,-0.095768064,0.0036651916,0,0.004886922
1764917116141,-0.21068975,9.825804,-0.08379706,0.004886922,0.0012217305,0.002443461
1764917116194,-0.2633622,9.821015,-0.16998832,0.0061086523,-0.0012217305,-0.0012217305
1764917116245,-0.37588966,9.80665,-0.18914193,0.004886922,0.0036651916,0
1764917116297,-0.23463176,9.844957,-0.17477672,0.004886922,0.0012217305,0
1764917116353,-0.12449849,9.821015,-0.30406362,0.004886922,0,-0.004886922
1764917116405,-0.1364695,9.818622,-0.24660277,0.002443461,-0.0012217305,-0.008552114
1764917116457,-0.22266077,9.828198,-0.21547815,0.0012217305,0.004886922,-0.012217305
1764917116511,-0.24899697,9.811439,-0.10295067,0.002443461,-0.007330383,-0.019547688
1764917116563,-0.25617957,9.832987,-0.1316811,0.004886922,-0.0061086523,-0.02443461
1764917116617,-0.38067806,9.758766,-0.10534488,0.008552114,-0.0036651916,-0.02443461
1764917116674,-0.48362875,9.816227,-0.30166942,0.012217305,-0.008552114,-0.019547688
1764917116727,-0.5363012,9.825804,-0.25857377,0.007330383,-0.002443461,-0.013439035
1764917116779,-0.39743748,9.770737,-0.29688102,0.0061086523,-0.002443461,-0.008552114
1764917116832,-0.866701,9.811439,-0.107739076,0.012217305,-0.012217305,0.014660766
1764917116888,-0.7134721,9.82341,-0.39504328,0.014660766,-0.014660766,0.032986723
1764917116940,-0.02873042,9.904813,-0.5650316,0.007330383,-0.018325957,0.040317107
1764917116993,0.4141969,9.785102,-0.39743748,-0.019547688,0.0061086523,-0.009773844
1764917117045,-0.059855044,9.768343,-0.08619126,-0.021991149,0.012217305,-0.029321533
1764917117098,-0.35673606,9.770737,-0.14604631,-0.018325957,0.0012217305,-0.035430185
1764917117156,-0.8714894,9.890448,-0.17956513,-0.010995574,-0.012217305,-0.017104227
1764917117209,-1.0414777,9.794679,-0.21068975,-0.008552114,-0.018325957,0.0061086523
1764917117261,-0.91458505,9.888053,-0.4357447,-0.013439035,-0.018325957,0.02443461
1764917117314,-2.5498247,9.854534,-1.2473791,-0.018325957,-0.5852089,-0.0061086523
1764917117373,-0.7254431,9.818622,-4.307169,-0.010995574,-1.6065756,-0.080634214
1764917117430,-0.1388637,10.13705,-0.82599956,-0.3042109,0.22724187,0.10751228
1764917117483,-4.4699745,28.459875,3.9815574,-0.24312437,-2.7134633,-0.16371189
1764917117542,0.50517654,16.249447,-0.4405331,-0.3371976,-0.46181414,0.1282817
1764917117594,1.9249382,11.918336,1.3383588,-0.21624629,-0.47036624,0.10873401
1764917117646,1.4772224,9.0716305,0.39504328,-0.26267207,0.98471475,0.1685988
1764917117698,0.6799533,6.8091097,-0.1316811,-0.30787608,0.75991637,0.043982297
1764917117756,0.62728083,4.8626237,0.45729253,-0.4447099,0.28588495,-0.1001819
1764917117809,0.59615624,6.1770406,0.4141969,-0.43127087,0.25900686,-0.172264
1764917117861,-0.8499416,7.345411,0.91458505,-0.43004912,0.12217305,-0.22113322
1764917117914,0.11252748,8.947132,1.1468226,-0.535118,0.10262536,-0.19547687
1764917117968,0.9792285,9.193734,2.3175871,-0.5815437,0.015882496,-0.21135938
1764917118024,1.2569559,9.742006,2.6144683,-0.6206391,0.41538838,-0.27000242
1764917118077,-2.4061728,8.3821,5.1523223,-0.13316862,0.22113322,-0.27122417
1764917118130,-5.4300494,9.200917,6.033388,-0.008552114,0.29565877,-0.13194689
1764917118183,-2.5929205,8.231265,7.1395097,0.20525073,-0.51923543,-0.04642576
1764917118235,-2.2601264,8.89446,6.6726403,0.5864306,0.02076942,0.07452556
1764917118291,-1.6065093,9.751583,5.815516,0.71959925,0.24678956,0.12095132
1764917118345,-1.1180922,9.866506,5.568913,0.8881981,-0.018325957,0.10995574
1764917118398,-0.6799533,9.344569,2.2529438,1.1447614,0.018325957,0.0842994
1764917118450,-0.6895301,8.870518,0.7062895,1.1887437,0.0036651916,0.07941248
1764917118507,-0.50278234,8.623915,-0.6631939,1.1936307,0.047647487,0.07819075
1764917118559,-0.7637503,7.867347,-2.566584,1.142318,-0.030543262,0.09162979
1764917118612,-0.59615624,7.8146744,-3.8067808,1.0922271,-0.14172074,0.096516706
1764917118666,-0.2633622,8.032547,-5.29358,1.0030408,-0.30298916,0.09285152
1764917118719,-0.49799395,8.09719,-7.285556,0.70738196,-0.3286455,0.07086037
1764917118773,-0.37588966,8.14268,-8.099585,0.5204572,-0.31642818,0.064751714
1764917118829,0.35913026,7.359776,-12.315774,0.013439035,-0.3323107,0.029321533
1764917118881,1.0055647,6.26802,-15.622166,-0.3200934,-0.15271631,-0.0036651916
1764917118933,1.4580688,4.84347,-21.808783,-0.7855727,-0.28588495,-0.09040806
1764917118989,1.7525556,0.6991069,-26.364948,-1.5393804,-0.3371976,-0.16982053
1764917119043,1.0486604,-4.5154643,-21.03785,-3.602883,0.64873886,-0.36041048
1764917119095,1.0414777,-10.474632,-13.374011,-4.422664,-0.27122417,-0.5534439
1764917119148,1.2186487,-19.395428,2.1284454,-5.241224,-1.5662584,-0.6768387
1764917119201,0.1340753,-21.90455,11.015722,-5.343849,0.06841691,-0.5021312
1764917119254,-1.1133038,-22.16073,20.793642,-5.1019464,-0.24678956,-0.548557
1764917119307,-2.1571758,-12.629414,37.694313,-3.4293976,-0.06963864,-0.516792
1764917119361,-3.9193082,-6.5098343,37.67755,-2.2369885,-0.012217305,-0.46181414
1764917119414,-6.303933,-1.9919758,37.77332,-1.1838568,0.095294975,-0.31031954
1764917119470,-6.361394,1.5179238,31.105469,0.40561453,-0.04520403,0.14049901
1764917119524,-4.948815,0.17477672,29.884426,0.9639453,-0.39584067,0.29565877
1764917119577,-3.205836,-1.721431,29.475018,1.5723672,-0.66828656,0.3726278
1764917119630,0.02633622,-5.3199162,22.383392,2.7036896,-0.7440339,0.3323107
1764917119682,0.2633622,-6.315904,17.82962,3.0787609,-0.39584067,0.26389378
1764917119735,1.3000516,-7.3645644,14.738706,3.3426547,-0.54611355,0.14294247
1764917119793,0.33279404,-7.4866686,7.1586633,3.5662313,-0.17348573,-0.062308256
1764917119849,0.89064306,-6.682217,4.462792,3.530801,-0.052534413,-0.12339478
1764917119902,0.31364042,-5.6646814,2.5570073,3.4684927,0.25167647,-0.118507855
1764917119957,0.7469909,-3.7708676,-1.3311762,3.3341024,0.056199603,-0.17592919
1764917120009,-0.30406362,-2.066196,-4.1299977,3.2155948,-0.1441642,-0.2125811
1764917120061,-0.37828386,-1.0151415,-6.0477533,3.0250046,-0.09285152,-0.2321288
1764917120116,-1.757344,1.2018893,-10.228029,2.4813347,0.22235495,-0.16493362
1764917120168,-2.0231004,2.3127987,-12.109872,2.212554,-0.02321288,-0.12339478
1764917120220,-2.3415294,3.7062242,-14.4609785,1.8985692,0.05009095,-0.07941248
1764917120274,-1.8076223,5.2241483,-15.909471,1.1398746,-0.037873644,0.035430185
1764917120327,-1.8291701,5.3103395,-15.701175,0.7635816,0.081855945,0.08307768
1764917120384,-1.436521,5.0493712,-15.574282,0.42271876,-0.05131268,0.10751228
1764917120437,-0.5363012,3.5314474,-16.587029,-0.28710666,-0.06719518,0.12461651
1764917120489,0.050278235,1.4437037,-18.720263,-0.68661255,0.087964594,0.12095132
1764917120548,-0.48841715,-3.1555579,-25.35699,-1.9071213,0.34574974,-0.014660766
1764917120602,-0.47165772,-5.161899,-25.735273,-2.756224,0.56199604,-0.09407325
1764917120655,-0.35194764,-7.9248075,-20.654778,-3.667635,0.89919364,-0.21991149
1764917120710,-0.8690952,-14.944607,-8.810662,-5.082399,0.6805039,-0.4728097
1764917120767,-1.1731589,-18.705898,-3.430891,-5.522222,0.18570304,-0.5644395
1764917120819,-0.088585466,-23.163902,1.8770541,-5.816659,-0.13194689,-0.5925393
1764917120871,-2.0326772,-29.079973,23.199814,-5.7580156,-0.16126843,-0.54244834
1764917120924,0.009576807,-23.386562,33.47094,-5.031086,-0.62796944,-0.5009095
1764917120978,0.6368576,-14.997279,41.47715,-3.9107592,-0.73426,-0.43127087
1764917121033,-1.1324574,-1.388637,45.250412,-1.3585643,-0.43249258,-0.29810223
1764917121085,-1.5275006,0.20829555,43.58405,-0.3042109,-0.07452556,-0.20158553
1764917121137,-1.7717092,-0.5363012,41.32871,0.68661255,-0.080634214,-0.13194689
1764917121190,-0.8714894,-6.241684,32.084698,2.4471262,0.18570304,-0.0012217305
1764917121242,-0.48123455,-9.433155,26.345795,3.1019738,0.27977628,0.002443461
1764917121297,0.37828386,-11.465832,19.893421,3.707952,0.1563815,0.010995574
1764917121351,0.22026655,-12.785037,9.303867,4.0915756,0.18570304,-0.10751228
1764917121404,0.7757214,-12.425907,6.291962,4.130671,-0.25045475,-0.20891592
1764917121456,0.088585466,-12.105083,3.596091,4.1331143,0.26267207,-0.2003638
1764917121508,-0.17717093,-10.263943,-1.3383588,4.0500364,0.15882497,-0.27000242
1764917121561,-0.62967503,-8.748413,-4.4005427,3.9522982,0.03176499,-0.28344148
1764917121616,-1.1133038,-7.7931266,-7.216124,3.7922513,0.14172074,-0.2919936
1764917121669,-2.3175871,-3.383007,-15.387534,3.2082644,0.41905355,-0.12217305
1764917121722,-3.679888,0.1436521,-19.80723,2.7525587,0.17348573,-0.042760566
1764917121775,-3.5817258,3.122039,-21.93328,2.1600194,0.047647487,0.042760566
1764917121830,-3.5553896,4.2880154,-22.285229,0.8588765,0.07086037,0.23823744
1764917121885,-2.9113493,3.763685,-21.016302,0.28710666,-0.073303826,0.31031954
1764917121938,-1.8555063,3.0262709,-19.632454,-0.21746802,-0.14538592,0.3555236
1764917121990,0.4237737,-0.02633622,-18.81603,-1.1496484,-0.11484267,0.37140608
1764917122042,0.7613561,-2.1930888,-19.342756,-1.6481144,0.052534413,0.30543262
1764917122095,-0.11252748,-3.8307228,-21.509508,-2.2382102,0.4728097,0.21502456
1764917122148,1.2186487,-7.551312,-18.47366,-3.707952,0.8197812,-0.16737708
1764917122207,0.8762778,-10.630256,-15.0715,-4.437325,1.4819591,-0.42149702
1764917122259,-0.7015011,-14.30775,-12.160151,-5.077512,0.8588765,-0.83077675
1764917122311,-0.8690952,-25.981876,1.0366893,-6.037792,-0.1160644,-1.0262536
1764917122370,-5.21936,-28.277916,16.757017,-6.00114,0.46670106,-0.91629785
1764917122423,-3.3446999,-18.509573,37.612907,-4.3237042,-0.7611381,-0.7098254
1764917122476,-5.461174,-9.464279,42.523415,-3.150843,-0.70005155,-0.49235737
1764917122529,-5.5497594,-1.6472107,41.718964,-1.9413297,-1.0360274,-0.2761111
1764917122585,-3.5745432,3.8067808,44.467506,0.034208454,-0.5204572,0.07086037
1764917122638,-1.0390835,2.3319526,43.07169,1.0250319,-0.2443461,0.15149458
1764917122691,-0.50996494,-3.8786068,39.118862,2.2907448,-0.04520403,0.09285152
1764917122746,0.4261679,-13.670892,24.540567,3.8704422,0.172264,0.04153884
1764917122802,0.6847417,-16.534357,17.092205,4.346917,0.172264,0.013439035
1764917122855,0.8499416,-17.633295,11.188105,4.609589,-0.06352998,-0.0720821
1764917122908,0.2633622,-17.221493,2.5689783,4.7317624,-0.059864793,-0.10140363
1764917122960,-0.20829555,-16.318878,-0.6727707,4.6951103,0.17959438,-0.09896017
1764917123013,-1.6591818,-14.918271,-3.916914,4.614476,0.48991394,0.002443461
1764917123071,-1.6256629,-11.073183,-12.01171,4.224744,0.21502456,0.015882496
1764917123123,-1.5107412,-8.267179,-15.780184,3.8496728,0.058643065,0.010995574
1764917123175,-1.8555063,-4.1371803,-21.389797,3.3903022,0.204029,0.032986723
1764917123227,-1.1204864,1.3910311,-27.030537,1.9779817,0.07086037,0.032986723
1764917123281,-1.7286136,2.3223755,-26.874914,1.1972959,0.17592919,0.062308256
1764917123335,-1.3910311,2.1906946,-25.558104,0.46303585,0.13927728,0.089186326
1764917123387,-0.3184288,0.18674773,-22.95321,-0.84299403,-0.14660765,0.15149458
1764917123439,-0.93613285,-1.2785037,-22.086512,-1.4257594,-0.07696902,0.14782938
1764917123491,0.12210429,-3.7325604,-20.458454,-2.021964,-0.19914207,0.12705997
1764917123544,-1.4532804,-6.5146227,-18.02355,-3.2143729,0.3921755,0.008552114
1764917123596,-1.5131354,-7.8793178,-15.279796,-3.794695,0.2724459,-0.065973446
1764917123651,-1.7238252,-9.270349,-12.921507,-4.3322563,0.6560693,-0.089186326
1764917123706,-2.5306711,-14.161703,-5.671864,-5.2326717,0.29077184,-0.1881465
1764917123759,-0.62009823,-18.5814,-1.3670892,-5.5161133,-0.18203785,-0.1881465
1764917123811,-1.970428,-21.823149,4.783615,-5.674938,0.14538592,-0.13439035
1764917123864,1.0534488,-23.089682,24.765623,-5.050634,-0.8735373,-0.14294247
1764917123917,-0.39264908,-15.375564,37.308846,-4.1233406,-0.43127087,-0.064751714
1764917123971,1.9967642,-8.793902,39.698257,-2.8930578,-0.8393288,-0.0036651916
1764917124026,0.47405192,-0.4141969,31.318552,-0.8698721,0.019547688,0.06719518
1764917124079,0.035913024,1.3024458,24.41128,-0.24312437,0.18081611,0.089186326
1764917124132,-0.047884032,2.336741,19.091364,0.12583824,0.09040806,0.10262536
1764917124187,-0.6464345,2.1021092,11.722012,0.3885103,-0.087964594,0.105068825
1764917124239,-0.8475474,1.1899183,10.400413,0.37873647,-0.09162979,0.12583824
1764917124291,-0.11252748,0.82599956,9.299079,0.37507126,-0.056199603,0.14049901
1764917124344,2.1332338,0.46208093,8.853758,0.3494149,-0.058643065,0.04153884
1764917124397,2.0925324,0.3854665,9.160215,0.33841935,0.13072516,-0.039095376
1764917124452,2.60968,-0.3184288,9.818622,0.35918877,0.23579398,-0.1600467
1764917124507,-0.15562311,1.1061212,10.007763,0.49113566,0.23701571,-0.30298916
1764917124559,-0.02873042,1.5562311,10.105926,0.5864306,-0.015882496,-0.32375857
1764917124612,-0.80445176,1.9919758,9.555259,0.65484756,0.103847094,-0.27977628
1764917124668,-1.9081788,4.036624,8.248025,0.5925393,0.45937067,-0.16249016
1764917124723,-2.0638018,4.4196963,8.312668,0.5045747,0.6133087,-0.081855945
1764917124777,-1.328782,4.1611223,8.834604,0.44959682,0.38240165,-0.065973446
1764917124830,-1.7980455,3.4045548,10.857705,0.50946164,0.453262,-0.06963864
1764917124882,-2.0566192,3.3734303,10.967838,0.6401868,0.49480084,-0.06841691
1764917124943,-2.755726,3.2680852,11.09473,0.80878556,0.28955013,-0.06352998
1764917124995,-2.6408045,3.490746,10.096349,1.1154399,-0.04642576,-0.02565634
1764917125048,-2.9472623,3.9624038,9.267955,1.2021828,-0.05009095,0.03176499
1764917125104,-3.3207579,4.3981485,7.750031,1.2742649,-0.05497787,0.09407325
1764917125157,-2.681506,4.8362875,6.591237,1.3121386,-0.039095376,0.19058995
1764917125211,-2.966416,5.1475334,7.0605006,1.3023647,0.0842994,0.24312437
1764917125266,-2.384625,5.4683566,6.7564373,1.3720033,0.09407325,0.28710666
1764917125321,-1.9560628,5.470751,5.777209,1.4196508,0.16371189,0.2846632
1764917125374,-2.1859062,5.4779334,4.3718123,1.4294246,0.30543262,0.32620203
1764917125426,-1.2497733,5.149928,3.3782187,1.4306464,0.37995818,0.376293
1764917125479,-0.80924016,5.781997,3.2992098,1.4220943,0.10751228,0.38362336
1764917125531,-0.91219085,6.7324953,2.5474305,1.3976597,0.4288274,0.40194935
1764917125584,-0.2777274,8.710106,0.45489833,1.3084733,0.5558874,0.32253686
1764917125635,0.12689269,9.303867,-0.6607997,1.2620476,-0.12461651,0.21991149
1764917125693,0.038307227,9.598354,-1.757344,1.1691961,0.30298916,0.1966986
1764917125745,0.7350199,9.7563715,-3.5745432,0.9297369,-0.008552114,0.019547688
1764917125796,0.40701428,11.137826,-5.5401826,0.7635816,-0.19914207,-0.1001819
1764917125849,0.20590134,11.113884,-7.225701,0.50823987,0.004886922,-0.15515977
1764917125902,-0.7278373,10.070012,-8.013393,-0.13194689,0.14538592,-0.22113322
1764917125955,-1.5251064,8.537724,-6.1387334,-0.45081854,0.30298916,-0.22113322
1764917126008,-1.9033904,7.855376,-3.845088,-0.66828656,0.096516706,-0.18081611
1764917126063,-1.0893618,7.9870567,1.0749966,-0.8014552,0.14538592,-0.08552113
1764917126115,-1.2042835,8.185776,2.1906946,-0.7171558,0.12950343,-0.07819075
1764917126165,-2.0901382,9.01417,3.5003228,-0.6206391,0.040317107,-0.09040806
1764917126217,-2.9592333,9.5385,3.9983168,-0.48258355,-0.1563815,-0.06963864
1764917126270,-2.870648,9.595961,4.084508,-0.10995574,-0.09407325,0.081855945
1764917126325,-1.757344,10.431537,2.9759927,-0.02443461,-0.112399206,0.10873401
1764917126378,0.7733272,14.156915,1.6089035,0.06719518,-0.1600467,0.06352998
1764917126431,-1.7669208,9.272743,0.8571242,0.04520403,1.2363913,0.23335053
1764917126484,-1.2880806,9.459491,1.1085154,0.04153884,0.86376345,0.2125811
1764917126538,-3.655946,9.672575,2.9520507,0.05009095,0.689056,0.19547687
1764917126593,0.35434186,8.856153,0.7206547,0.16126843,-0.33475417,0.14905111
1764917126646,-0.39983168,10.13705,1.5370775,0.13072516,0.60231316,0.19058995
1764917126698,-0.521936,9.744401,0.9624691,0.1685988,0.013439035,0.112399206
1764917126751,-0.23223756,9.773131,0.581791,0.18081611,0.017104227,0.05375614
1764917126803,-0.4381389,9.703699,0.40462008,0.18081611,0.010995574,0.029321533
1764917126862,-0.7637503,9.758766,0.04309563,0.17592919,-0.008552114,0.009773844
1764917126916,-1.1444284,9.655815,-0.20111294,0.14294247,0.042760566,0.008552114
1764917126968,-1.0845734,9.765948,-0.090979666,0.12705997,0.12217305,0.021991149
1764917127021,-0.90979666,9.878476,-0.6895301,0.07819075,0.040317107,0.034208454
1764917127075,-0.9720459,9.7324295,-0.33039984,0.04886922,0.040317107,0.030543262
