t,ax,ay,az,gx,gy,gz
1764918339552,-0.29927522,-1.7405846,9.797073,0.2687807,-0.45937067,-0.3494149
1764918339606,-0.15562311,-1.8004397,9.512163,0.012217305,0,0.008552114
1764918339657,-0.22984336,-2.0231004,9.715671,0.02443461,-0.18692477,-0.0061086523
1764918339708,-0.28491,-1.7477672,9.423578,0.037873644,-0.26633725,-0.007330383
1764918339759,0.1364695,-1.661576,9.397242,0.02321288,0.103847094,0.032986723
1764918339811,0.090979666,-1.7357962,9.267955,0.010995574,0.16982053,0.030543262
1764918339862,-0.12928689,-1.7477672,9.167398,0.002443461,0.10873401,0.014660766
1764918339913,-0.16280572,-1.6136919,9.129091,-0.010995574,0.052534413,0.002443461
1764918339965,-0.260968,-1.6639702,8.949526,-0.036651913,0.07574729,0.0036651916
1764918340017,-0.5650316,-1.7477672,9.038112,-0.04886922,0.12339478,0.015882496
1764918340069,-0.8882488,-1.5705963,9.500193,-0.059864793,0.22235495,0.02687807
1764918340121,-0.7661445,-2.1619642,8.078036,-0.089186326,0.029321533,0.036651913
1764918340178,-0.8882488,-2.1212628,8.525752,-0.1685988,0.08307768,0.042760566
1764918340230,-0.62009823,-2.0135236,8.573636,-0.24923302,0.30909783,0.064751714
1764918340282,-1.2066777,-2.5905263,10.6398325,-0.30543262,0.13561209,0.04520403
1764918340333,-1.2378023,-2.5713725,12.837709,-0.12583824,-0.2406809,0.02076942
1764918340384,-1.4652514,-1.4413095,11.116279,0.08674286,-0.53023106,0.032986723
1764918340436,-0.38307226,-2.8658595,11.001357,-0.042760566,0.26511553,0.22235495
1764918340487,-0.35434186,-2.885013,11.865664,0.05009095,0.07941248,0.2003638
1764918340539,-0.1604115,-2.4109612,11.324574,0.22724187,-0.25900686,0.14660765
1764918340596,-0.033518825,-1.8579005,9.981427,0.3213151,-0.29810223,0.09285152
1764918340648,0.059855044,-1.9177556,8.300697,0.2443461,0.26145032,0.057421334
1764918340700,-0.095768064,-1.7597382,8.02297,0.18936823,0.267559,0.02687807
1764918340753,-0.15801731,-1.6567876,7.6111674,0.13683382,0.26267207,0.0036651916
1764918340808,-0.6488287,-1.4293385,7.513005,0.007330383,0.12217305,-0.017104227
1764918340861,-0.61291564,-1.5179238,7.445967,-0.06963864,0.07819075,-0.02565634
1764918340918,-0.6919243,-1.5442601,8.324639,-0.1881465,0.1001819,-0.05009095
1764918340970,-0.92176765,-1.8722657,8.825027,-0.21991149,0.06963864,-0.06841691
1764918341023,-1.0630256,-1.9680338,9.212888,-0.22235495,-0.02076942,-0.07574729
1764918341080,-1.3311762,-2.255338,9.648633,-0.24190263,0.14049901,-0.05375614
1764918341132,-1.4173675,-2.255338,9.727641,-0.22235495,0.18570304,-0.037873644
1764918341185,-1.6424223,-2.4540567,9.631873,-0.19792034,0.13927728,-0.029321533
1764918341238,-1.7621324,-2.6360161,9.370906,-0.15760323,0.14294247,-0.008552114
1764918341291,-1.8698715,-2.767697,9.260772,-0.13561209,-0.019547688,0.004886922
1764918341344,-2.219425,-2.1787236,8.619126,-0.13194689,0.014660766,0.039095376
1764918341398,-1.6903064,-2.695871,8.836999,-0.22479841,0.17837265,0.11362094
1764918341452,-1.6879122,-3.347094,9.555259,-0.24312437,0.28099802,0.12950343
1764918341506,-1.9967642,-3.0885203,9.706094,-0.2003638,0.13927728,0.12461651
1764918341558,-2.3104045,-2.9376855,9.595961,-0.18936823,0.13194689,0.16493362
1764918341612,-2.3319526,-2.825158,9.435549,-0.18325958,0.23457226,0.21624629
1764918341665,-2.042254,-2.8993783,9.591172,-0.17348573,0.2003638,0.24801129
1764918341717,-1.7142484,-3.0885203,9.449914,-0.1160644,0.20158553,0.27000242
1764918341770,-1.6065093,-3.13401,9.380483,-0.09896017,0.23457226,0.25778514
1764918341822,-1.5131354,-3.4261026,9.40203,-0.06841691,0.18081611,0.23335053
1764918341883,-1.7429788,-2.8514943,8.058883,-0.013439035,0.27122417,0.13072516
1764918341935,-2.2146366,-2.861071,7.8146744,-0.0842994,0.30543262,0.10629055
1764918341987,-2.3175871,-2.8299465,8.0924015,-0.17837265,0.6621779,0.14049901
1764918342040,-2.4277205,-3.3925838,9.033323,-0.17837265,0.43982297,0.10262536
1764918342092,-2.5378537,-3.1507695,9.229648,-0.12339478,0.14294247,0.059864793
1764918342145,-2.7748797,-3.4213142,9.244013,-0.05375614,0.13072516,0.047647487
1764918342199,-2.6982653,-3.323152,8.640674,0.0061086523,-0.07819075,0.030543262
1764918342251,-2.5617957,-3.359065,8.6095495,-0.004886922,0.09162979,0.007330383
1764918342303,-2.6312277,-3.41892,8.827422,-0.010995574,0.23090707,-0.032986723
1764918342356,-3.490746,-3.311181,8.619126,0.039095376,0.30909783,-0.118507855
1764918342408,-3.6104562,-3.1675289,8.26239,0.058643065,0.23579398,-0.13194689
1764918342460,-4.1156325,-3.2273839,8.046912,0.05497787,0.09407325,-0.14660765
1764918342513,-3.8786068,-3.4404678,7.764396,0.018325957,0.20647246,-0.09773844
1764918342564,-4.2544966,-3.2704794,8.070854,0.004886922,0.26389378,-0.07819075
1764918342615,-4.156334,-3.6272156,7.9032598,0.02076942,0.12095132,-0.064751714
1764918342668,-4.048595,-3.514688,7.8529816,0.018325957,0.08307768,-0.064751714
1764918342720,-4.453215,-3.4261026,7.9822683,-0.0061086523,0.12217305,-0.035430185
1764918342772,-4.486734,-3.3901896,8.037335,-0.007330383,0.012217305,-0.007330383
1764918342825,-4.256891,-3.241749,8.032547,-0.002443461,-0.037873644,0.009773844
1764918342877,-4.144363,-3.2848446,8.135497,-0.0036651916,-0.036651913,0.02321288
1764918342933,-3.9504328,-3.359065,7.9128366,0,-0.06841691,0.02687807
1764918342988,-3.8019924,-3.323152,7.8410106,-0.014660766,0,0.021991149
1764918343039,-3.8642416,-3.4261026,7.9870567,-0.042760566,0.035430185,0.021991149
1764918343092,-4.039018,-3.3925838,8.082825,-0.052534413,0.06352998,0.019547688
1764918343144,-4.050989,-3.5529952,8.157045,-0.04886922,0.02443461,0.028099801
1764918343197,-4.0414124,-3.4284968,8.365341,-0.036651913,-0.0012217305,0.043982297
1764918343252,-3.916914,-3.478775,8.429984,-0.021991149,-0.040317107,0.04886922
1764918343304,-3.7014358,-3.5194764,8.39886,-0.0012217305,-0.07086037,0.04642576
1764918343356,-3.7086184,-3.5122938,8.118738,0.014660766,-0.037873644,0.032986723
1764918343408,-3.6727054,-3.5003228,8.219295,0.012217305,-0.014660766,0.02443461
1764918343460,-3.8187518,-3.3135753,8.106767,0.015882496,-0.0012217305,0.021991149
1764918343516,-3.5458126,-3.3758245,8.051701,0.004886922,0.007330383,0.010995574
1764918343568,-3.632004,-3.466804,8.104373,0.004886922,0.02321288,-0.002443461
1764918343621,-3.7565024,-3.3638535,8.078036,0.0036651916,0.04642576,-0.015882496
1764918343678,-3.9600096,-3.347094,7.9822683,-0.0036651916,0.029321533,-0.014660766
1764918343731,-3.9432502,-3.4691982,8.020576,-0.012217305,0.030543262,-0.010995574
1764918343784,-3.9600096,-3.335123,8.1163435,-0.012217305,0.019547688,-0.009773844
1764918343838,-3.8881836,-3.4045548,8.243237,-0.010995574,0.030543262,-0.009773844
1764918343891,-4.010288,-3.4500446,8.209718,0,0.035430185,-0.013439035
1764918343943,-4.1012673,-3.454833,8.166622,0.004886922,0.028099801,-0.014660766
1764918344000,-4.173094,-3.3854012,8.123527,0.012217305,0.02443461,0.0036651916
1764918344053,-4.1515455,-3.4404678,8.061277,0.013439035,0.0061086523,0.010995574
1764918344105,-4.0677485,-3.4356794,7.9750857,0.013439035,0.013439035,0.015882496
1764918344158,-3.9600096,-3.4117374,7.9583263,0.008552114,-0.010995574,0.015882496
1764918344210,-3.9336734,-3.3135753,7.9008656,0,0.007330383,0.014660766
1764918344264,-3.98874,-3.347094,7.943961,-0.007330383,0.0061086523,0.015882496
1764918344319,-3.8522706,-3.454833,7.9750857,-0.012217305,-0.007330383,0.010995574
1764918344374,-3.952827,-3.3806129,8.106767,-0.012217305,0.018325957,0.004886922
1764918344427,-4.0557775,-3.4021606,8.090008,-0.008552114,-0.0036651916,0.0012217305
1764918344479,-4.146757,-3.3877954,8.030152,-0.017104227,-0.019547688,0.014660766
1764918344532,-4.0054994,-3.3854012,8.130709,-0.015882496,-0.02321288,0.019547688
1764918344586,-3.9504328,-3.478775,7.9966335,-0.014660766,-0.035430185,0.018325957
1764918344639,-3.86903,-3.3542767,7.967903,-0.019547688,-0.0036651916,0.009773844
1764918344692,-3.9240966,-3.4237084,8.039729,-0.028099801,0.03176499,0.0061086523
1764918344744,-4.0581717,-3.41892,8.11395,-0.028099801,0.042760566,0.010995574
1764918344799,-3.9121256,-3.5577838,8.169016,-0.012217305,-0.058643065,0.019547688
1764918344856,-3.8283286,-3.3973722,8.133103,-0.013439035,-0.036651913,0.02076942
1764918344908,-3.8426938,-3.4165258,8.173804,-0.014660766,-0.015882496,0.02076942
1764918344960,-3.775656,-3.406949,8.130709,-0.0061086523,0.0036651916,0.0061086523
1764918345013,-3.7972038,-3.4572272,8.0924015,0.0012217305,-0.008552114,-0.0061086523
1764918345067,-3.8498764,-3.3997664,8.090008,0.0012217305,0,-0.007330383
1764918345121,-3.8762126,-3.4572272,7.9942393,-0.002443461,0.0036651916,-0.0036651916
1764918345175,-3.8666358,-3.3734303,8.063671,-0.007330383,0.015882496,-0.0036651916
1764918345228,-3.799598,-3.4859576,8.080431,-0.007330383,0.029321533,-0.008552114
1764918345280,-4.0557775,-3.4572272,7.9846625,0,0.007330383,-0.009773844
1764918345332,-3.9432502,-3.4859576,8.037335,-0.007330383,0.017104227,-0.0012217305
1764918345387,-4.003105,-3.514688,8.1163435,-0.010995574,0.029321533,0
1764918345439,-3.9336734,-3.572149,8.14268,-0.0012217305,0.02321288,-0.0036651916
1764918345495,-4.0701427,-3.5098996,8.085219,0.004886922,0.018325957,-0.0036651916
1764918345547,-4.197036,-3.4380736,8.056489,0.004886922,0.030543262,0.0012217305
1764918345601,-4.132392,-3.5410242,8.123527,0.012217305,0.015882496,0.014660766
1764918345654,-4.1012673,-3.4691982,8.075643,0.019547688,-0.002443461,0.017104227
1764918345707,-4.060566,-3.4524388,8.037335,0.019547688,-0.008552114,0.019547688
1764918345759,-3.9193082,-3.3925838,7.9702973,0.013439035,-0.0012217305,0.02443461
1764918345812,-3.904943,-3.4356794,7.855376,0.010995574,-0.0061086523,0.02076942
1764918345864,-3.8833952,-3.4524388,7.872135,0.0061086523,0.014660766,0.017104227
1764918345921,-3.8953662,-3.4117374,7.8912888,-0.009773844,0.009773844,0.0061086523
1764918345976,-3.8522706,-3.4380736,7.9008656,-0.015882496,0.034208454,-0.0012217305
1764918346028,-4.0174704,-3.4284968,8.056489,-0.019547688,0.037873644,-0.0061086523
1764918346081,-4.000711,-3.4979286,8.154651,-0.008552114,0.04153884,-0.017104227
1764918346134,-4.187459,-3.4404678,8.070854,0,0.012217305,-0.017104227
1764918346188,-4.333505,-3.4524388,7.9822683,0.0036651916,0.013439035,-0.009773844
1764918346241,-4.2066126,-3.5051112,8.085219,0.007330383,-0.012217305,0.002443461
1764918346293,-4.134786,-3.4572272,7.9104424,0.004886922,-0.002443461,0.002443461
1764918346346,-4.24492,-3.454833,7.9822683,0.009773844,-0.0036651916,0.002443461
1764918346399,-4.1180267,-3.3877954,7.93199,0.009773844,-0.04520403,0.007330383
1764918346452,-4.1012673,-3.4284968,7.9391727,0.004886922,-0.008552114,0.004886922
1764918346505,-4.015076,-3.4452562,8.003817,0.004886922,-0.007330383,0
1764918346558,-4.0916905,-3.514688,7.872135,-0.0012217305,-0.013439035,-0.007330383
1764918346610,-4.197036,-3.4356794,7.9487495,-0.010995574,0.007330383,-0.0061086523
1764918346663,-4.247314,-3.383007,7.991845,-0.010995574,-0.012217305,0.0036651916
1764918346715,-4.039018,-3.5769374,7.943961,-0.014660766,-0.032986723,0.02076942
1764918346767,-4.1491513,-3.4476504,8.025364,-0.019547688,-0.02687807,0.02443461
1764918346820,-4.074931,-3.3446999,8.104373,-0.021991149,-0.02565634,0.035430185
1764918346875,-3.8522706,-3.4500446,8.264784,-0.019547688,-0.021991149,0.036651913
1764918346928,-3.7612908,-3.4811692,8.243237,-0.012217305,-0.0012217305,0.028099801
1764918346980,-3.7804444,-3.347094,8.269572,-0.0012217305,-0.009773844,0.019547688
1764918347034,-3.8714242,-3.394978,8.104373,0.007330383,0.002443461,0.013439035
1764918347090,-4.0342298,-3.347094,8.152257,0.012217305,-0.012217305,0.013439035
1764918347145,-3.8833952,-3.4332852,8.003817,0.017104227,-0.039095376,0.017104227
1764918347198,-3.940856,-3.4332852,7.989451,0.008552114,-0.013439035,0.013439035
1764918347251,-3.7110126,-3.406949,7.93199,0.002443461,-0.019547688,0.010995574
1764918347304,-3.7708676,-3.394978,8.0684595,-0.007330383,0.028099801,0.004886922
1764918347357,-3.8498764,-3.3901896,8.056489,0.002443461,-0.029321533,0
1764918347409,-3.6990416,-3.3686419,8.09719,0.002443461,-0.02687807,-0.004886922
1764918347462,-3.7900212,-3.4380736,8.14268,0,0.004886922,-0.010995574
1764918347515,-3.916914,-3.4931402,8.204929,0.012217305,-0.009773844,-0.017104227
1764918347569,-3.9695864,-3.3877954,8.111555,0.018325957,-0.02076942,-0.015882496
1764918347624,-4.050989,-3.4021606,8.018182,0.019547688,-0.02443461,-0.012217305
1764918347678,-3.9624038,-3.2800562,7.965509,0.009773844,-0.004886922,-0.008552114
1764918347730,-3.8474822,-3.3327289,7.9702973,0.0036651916,-0.007330383,-0.008552114
1764918347783,-3.7852328,-3.3662477,8.12592,-0.0036651916,0.019547688,-0.013439035
1764918347835,-4.096479,-3.3039982,8.183381,0.015882496,-0.008552114,-0.02443461
1764918347904,-4.074931,-3.4835634,8.104373,0.032986723,-0.089186326,-0.015882496
1764918347958,-4.237737,-3.5194764,8.343793,0.02565634,-0.095294975,-0.009773844
1764918348011,-4.060566,-3.3159695,8.288726,0.040317107,-0.2003638,-0.0012217305
1764918348063,-3.8857894,-3.3806129,8.101978,0.047647487,-0.14049901,0.018325957
1764918348115,-3.7349546,-3.371036,8.295909,0.030543262,-0.081855945,0.02565634
1764918348167,-3.6727054,-3.3494883,8.274361,0.037873644,-0.13439035,0.019547688
1764918348223,-3.371036,-3.3063924,8.149862,0.04153884,-0.18692477,0.007330383
1764918348277,-3.4404678,-3.2609026,8.288726,0.030543262,-0.15027285,-0.013439035
1764918348329,-3.3901896,-3.289633,8.291121,0.02565634,-0.081855945,-0.02321288
1764918348382,-3.526659,-3.3207579,8.7125,0.021991149,-0.018325957,-0.028099801
1764918348434,-3.3279405,-3.1603463,8.913613,0.05131268,0.02076942,-0.04886922
1764918348490,-3.2225955,-3.277662,9.069236,0.07941248,-0.07452556,-0.073303826
1764918348544,-3.2632968,-3.181894,8.724471,0.105068825,-0.02443461,-0.07819075
1764918348596,-3.4763808,-3.107674,8.51857,0.09407325,0.095294975,-0.06963864
1764918348649,-3.5218706,-3.3159695,8.6813755,0.09285152,0.12095132,-0.05497787
1764918348701,-3.7588966,-3.4117374,8.822633,0.119729586,0.07086037,-0.052534413
1764918348754,-4.321534,-3.0693667,8.300697,0.1966986,-0.23457226,-0.010995574
1764918348806,-4.3263226,-2.6791117,8.374918,0.19303341,-0.17470746,0.035430185
1764918348861,-3.8067808,-3.0095115,8.662222,0.18570304,-0.14294247,0.07941248
1764918348913,-3.727772,-2.765303,9.44752,0.22235495,-0.105068825,0.1600467
1764918348965,-3.2202013,-2.4468741,9.500193,0.26267207,-0.32742378,0.16249016
1764918349017,-3.2872388,-2.3702598,9.504981,0.27122417,0.0061086523,0.17959438
1764918349072,-1.0941502,-2.4756045,11.070788,0.37995818,0.0061086523,0.14660765
1764918349126,-1.4413095,-2.9161377,11.906365,0.52290064,-0.05009095,0.014660766
1764918349178,-3.775656,-0.7278373,9.773131,0.68539083,-0.33353242,-0.13439035
1764918349231,-1.6472107,-1.3335704,10.287885,0.6267477,-0.47403142,-0.019547688
1764918349283,-1.7860745,-1.7477672,10.623073,0.6792821,-0.5839872,-0.07574729
1764918349335,-1.8435353,-1.1683705,8.183381,0.6914995,-0.8173377,-0.1685988
1764918349391,-1.7860745,-0.18195933,7.3885064,0.54244834,-0.4728097,-0.16737708
1764918349447,-3.7900212,-1.0534488,12.220005,0.50701815,-0.45204028,-0.1600467
1764918349499,-1.7549498,-0.05746084,9.296685,0.6230826,-0.49602258,-0.05009095
1764918349552,-2.5210943,0.7517793,10.682928,0.5155703,-0.2883284,-0.19058995
1764918349604,-1.4556746,0.2896984,10.749966,0.5729916,-0.13683382,-0.087964594
1764918349659,-0.93613285,0.3878607,11.544841,0.61453044,-0.2932153,-0.1160644
1764918349712,-4.0773253,1.1587936,12.567164,0.7489208,0.04642576,-0.05009095
1764918349765,-1.6496049,0.30166942,12.5743475,0.8381071,0.06352998,0.05009095
1764918349818,-4.3143516,1.5825673,16.402676,0.96761054,-0.1685988,-0.010995574
1764918349880,-4.2521024,-0.9816227,23.585281,1.7067575,-0.5852089,0.24556783
1764918349932,-2.7724855,-0.8882488,24.784777,2.212554,0.21013765,0.34574974
1764918349984,-2.3894134,-2.681506,24.042574,2.7232373,0.32375857,0.46181414
1764918350037,0.32561144,-4.656722,17.427395,3.6248744,0.34574974,0.47403142
1764918350091,1.6041151,-6.265626,13.192051,3.9278636,-0.51923543,0.376293
1764918350144,2.7222073,-7.273585,8.911219,4.0903535,-0.17837265,0.21991149
1764918350196,2.8275523,-10.606314,2.6839,4.206418,-0.042760566,0.058643065
1764918350248,1.5131354,-11.413159,-0.074220255,4.191757,0.71593404,0.10751228
1764918350301,1.1013328,-9.176975,-4.6495395,4.1001277,0.58276546,0.10751228
1764918350353,1.8483237,-4.88896,-11.11149,3.739717,0.23090707,0.059864793
1764918350406,1.8579005,-3.8857894,-13.041217,3.426954,0.5131268,0.028099801
1764918350460,0.38307226,-3.107674,-12.528857,3.0665436,0.47036624,0.059864793
1764918350515,2.15957,-3.1387985,-12.466608,2.4813347,0.28099802,-0.0061086523
1764918350568,3.1268275,-2.9879637,-12.9167185,2.235767,0.087964594,-0.1001819
1764918350620,2.4636335,-2.2744915,-14.611813,1.9779817,0.31764993,-0.19547687
1764918350674,4.8626237,-1.2066777,-23.867796,1.3158038,0.073303826,-0.29565877
1764918350727,3.6822822,-1.661576,-32.228348,0.6658431,-0.59864795,-0.4642576
1764918350780,0.8643068,-3.4452562,-38.04147,-0.2761111,-0.57910025,-0.516792
1764918350832,-0.78529817,-10.953473,-44.06528,-2.814867,-1.4575244,-0.3323107
1764918350886,-1.1540052,-21.516691,-41.805157,-4.2137485,-1.6114625,-0.009773844
1764918350938,0.6919243,-33.229126,-37.62009,-5.4916787,-2.0207422,0.37018433
1764918350991,2.6719291,-59.534218,-21.6364,-7.516086,-2.5411994,1.3304645
1764918351046,7.726089,-70.37517,-10.790668,-8.053647,-3.018896,1.9694295
1764918351100,9.634268,-74.04787,6.129156,-8.2808895,-1.5894713,2.4569001
1764918351152,22.754494,-42.169075,61.997852,-6.541145,-0.7281514,2.430022
1764918351205,28.340166,-16.232687,74.56981,-4.316374,-0.3213151,1.6358972
1764918351258,21.068975,-2.0015526,68.05518,-1.9682078,0.41538838,0.75991637
1764918351315,12.878411,5.116409,63.25481,1.2534955,0.54000485,-0.38973203
1764918351367,11.329363,-3.8307228,62.124744,2.7403414,1.0592403,-0.53023106
1764918351420,10.70687,-19.965248,56.09375,4.3493605,0.9944886,-0.66339964
1764918351472,5.710171,-49.62462,27.626694,7.1752234,1.9694295,-0.3811799
1764918351524,4.024653,-54.745815,8.063671,7.7164497,1.2095132,-0.057421334
1764918351580,4.0198646,-55.006783,-1.9847932,7.756767,1.1582005,0.16126843
1764918351633,4.996699,-46.68693,-15.729905,7.1055846,1.0848967,0.50823987
1764918351684,6.600814,-40.6727,-23.628376,6.522819,1.4587462,0.6792821
1764918351736,6.517017,-32.776623,-33.14533,5.7091465,0.45204028,0.61819565
1764918351789,11.377247,-12.569559,-54.271763,2.783102,0.4129449,0.35308012
1764918351843,13.584701,-8.042124,-59.52943,0.95172805,-0.4166101,-0.080634214
1764918351895,12.878411,-8.554482,-62.222908,-0.9993755,-0.5045747,-0.5009095
1764918351953,3.6750996,-32.84366,-49.825733,-5.039638,-1.6468927,-0.8063421
1764918352006,5.374983,-48.561592,-38.86747,-6.6022315,-2.147802,-0.50579643
1764918352058,4.673482,-61.868565,-24.574087,-7.7115626,-2.389705,-0.09040806
1764918352110,4.5418005,-77.49792,-2.4636335,-8.598539,-2.9431489,1.1459832
1764918352164,11.844116,-78.44363,6.634333,-8.517905,-2.6890287,2.0402899
1764918352216,13.314156,-71.70873,24.887726,-8.1648245,-1.8887954,2.2174408
1764918352271,27.48783,-25.945963,63.62591,-5.263215,-1.391551,1.8924606
1764918352324,28.242002,-7.9367785,70.3608,-3.3609805,-0.54733527,1.2681563
1764918352378,24.890121,0.6536171,67.535645,-1.5283848,0.88086766,0.5766568
1764918352432,16.816874,-3.7565024,62.392895,1.9181169,0.8491027,-0.70005155
1764918352485,12.11466,-13.36204,55.804054,3.4538321,1.0690142,-0.9663888
1764918352538,10.649409,-25.335442,47.170563,4.9052477,1.6383406,-0.9786061
1764918352590,4.771644,-50.005295,23.822308,6.9699726,1.858252,-0.6206391
1764918352643,4.177882,-55.176773,11.602302,7.492873,1.518611,-0.26145032
1764918352696,5.7269306,-58.65555,5.2528787,7.7262235,0.8356637,-0.17348573
1764918352752,3.6942532,-56.24698,-8.860941,7.5417423,1.2889256,0.21502456
1764918352805,2.8419175,-53.184795,-14.274231,7.1984363,1.5577064,0.54367006
1764918352857,4.501099,-48.396393,-19.519926,6.7476177,1.1618657,0.8185594
1764918352915,12.155362,-26.755203,-53.45534,4.800179,0.42760566,0.7672467
1764918352972,12.658144,-19.172768,-64.48064,3.0164526,0.17104226,0.34574974
1764918353025,11.9374895,-9.880871,-72.58022,0.8258898,-0.10629055,-0.036651913
1764918353079,10.225636,-28.076803,-57.829548,-4.02438,-1.1679744,-0.675617
1764918353133,7.824251,-44.8003,-44.67341,-5.9046235,-1.3671165,-0.7464773
1764918353190,4.63278,-67.909134,-18.748993,-8.1012945,-1.491733,-0.28588495
1764918353242,3.095703,-73.3727,-9.9550905,-8.5276785,-2.2809708,0.10751228
1764918353296,6.4858923,-77.34708,-4.1659107,-8.695056,-3.3060026,0.9077458
1764918353352,17.120935,-73.377495,14.901511,-8.326094,-3.5332446,2.048842
1764918353404,17.611748,-60.812725,38.87944,-7.585725,-0.95417154,2.3066273
1764918353456,23.757664,-37.124493,52.16247,-6.1086526,-2.0207422,2.0207422
1764918353508,25.335442,-5.3678,63.30748,-2.7403414,-0.21991149,0.9969321
1764918353560,22.720974,2.7006595,61.47113,-1.0409144,0.17959438,0.3408628
1764918353618,22.847866,2.1571758,59.309166,0.37018433,0.31398472,-0.21991149
1764918353671,21.777658,-10.793061,52.05713,3.037222,0.53023106,-1.1032226
1764918353723,20.269312,-23.276428,47.76911,4.384791,1.4294246,-1.5161675
1764918353775,14.554352,-39.420532,37.80684,5.6969295,2.2479842,-1.6505579
1764918353829,6.409278,-55.811237,13.661315,7.484321,2.026851,-1.0384709
1764918353882,5.81791,-60.750473,4.8338933,7.78731,2.3835962,-0.6389651
1764918353936,2.9113493,-61.411274,-4.63278,7.8764963,2.2797492,0.037873644
1764918353989,6.145916,-53.986855,-13.160927,7.253414,1.2999213,0.625526
1764918354042,5.580884,-46.98142,-26.33143,6.681644,1.4978416,0.9101892
1764918354095,9.392453,-36.90901,-36.332012,5.759238,0.93584555,0.86620694
1764918354148,14.15452,-16.852785,-63.168617,2.7574458,-0.36163223,0.34330627
1764918354201,14.817715,-10.055647,-69.89872,0.6230826,-0.056199603,-0.17104226
1764918354255,14.061147,-11.942278,-72.69275,-1.8216002,-0.5900958,-0.7012733
1764918354308,6.0118403,-52.04516,-52.37795,-6.4482937,-1.5992452,-0.97005403
1764918354360,3.6655228,-75.12286,-43.347023,-8.186816,-1.9975294,-0.61086524
1764918354418,8.8777,-78.44363,-27.583597,-9.480629,-2.7769935,0.07452556
1764918354473,10.87207,-78.44363,1.5873557,-10.080499,-3.811799,1.4330899
1764918354525,13.448231,-78.44363,25.98427,-9.817826,-0.62796944,2.1270328
1764918354578,19.92694,-78.44363,47.927128,-8.508131,-3.4440582,2.1820107
1764918354630,27.971458,-20.745758,67.62183,-4.351804,-0.874759,1.7263051
1764918354690,27.63627,-4.654328,66.33614,-2.5680776,-0.5693264,0.9944886
1764918354748,18.859127,1.7621324,60.137558,0.44593164,0.3555236,-0.2883284
1764918354802,19.428947,-1.3000516,56.972424,1.8387043,1.028697,-0.6389651
1764918354855,15.950171,-9.28232,52.598217,3.1300735,1.5149459,-0.9272934
1764918354908,13.924677,-38.857895,37.581783,5.7946677,2.5680776,-1.1032226
1764918354960,8.693346,-49.114655,24.353819,6.8074822,2.9651399,-0.82833326
1764918355012,7.374141,-55.555058,10.407595,7.420791,2.1087067,-0.4569272
1764918355069,0.58657944,-52.801723,-5.535394,7.479434,2.2870796,0.5717699
1764918355122,4.369418,-46.586376,-14.8512335,7.1703362,0.6291912,0.90408057
1764918355174,4.537012,-38.589745,-18.713081,6.482502,1.2596041,1.1362094
1764918355226,5.997475,-25.55571,-27.617117,4.849048,0.06352998,1.0140363
1764918355278,6.7971387,-22.115242,-31.3401,3.76293,-0.096516706,0.7098254
1764918355335,5.1140146,-15.45936,-41.96557,2.8930578,-0.6658431,0.50579643
1764918355390,4.2161894,-7.089231,-60.295574,0.07452556,-0.112399206,-0.036651913
1764918355442,3.0023289,-11.417948,-60.70259,-1.8338175,-1.7922786,-0.2003638
1764918355495,0.5482722,-24.174255,-57.9325,-3.7739255,-1.2571607,-0.04153884
1764918355547,1.7238252,-56.491188,-37.15083,-7.029837,-2.2944098,0.6010914
1764918355599,0.62009823,-72.017586,-22.266075,-8.081747,-1.3487904,1.1252137
1764918355658,2.9233203,-78.44363,-8.221688,-8.607091,-2.3530529,1.6224581
1764918355710,12.179304,-78.44363,19.258959,-8.272337,-2.0708332,2.2944098
1764918355764,20.211851,-64.64105,27.528532,-7.442782,-1.8594738,2.733011
1764918355826,26.745626,-24.736893,58.77047,-5.1642547,-1.6163495,1.717753
1764918355879,24.59324,-10.953473,62.979477,-3.4245105,-0.014660766,1.1068878
1764918355933,24.147919,-1.7262194,65.33537,-1.881465,-0.20525073,0.31642818
1764918355989,13.292608,2.087744,57.70026,1.2241739,0.8686504,-0.48991394
1764918356041,11.647791,-0.28491,54.221485,2.4239132,1.1459832,-0.6450737
1764918356094,17.47049,-13.139379,51.05635,3.5369098,0.7623598,-0.9651671
1764918356146,10.594342,-43.612778,35.01041,6.147748,2.819754,-0.89919364
1764918356199,7.03177,-54.302887,22.287624,7.090924,2.7892108,-0.5839872
1764918356256,3.5290532,-58.54302,9.605537,7.6162677,2.8808405,0.030543262
1764918356308,3.7852328,-53.974884,-6.351817,7.442782,0.24923302,0.39584067
1764918356360,4.453215,-51.549557,-10.529699,7.1410146,0.12583824,0.32986724
1764918356412,6.471527,-47.204082,-18.921375,6.787935,0.8185594,0.33475417
1764918356467,5.616797,-30.739155,-39.94007,4.982217,-0.02443461,0.1881465
1764918356523,5.092467,-21.188684,-50.503292,3.8899899,0.32498032,0.056199603
1764918356576,1.4867992,-14.784196,-61.246075,2.1587977,0.40439278,-0.02565634
1764918356629,3.028665,-14.872781,-63.276356,-2.565634,-0.3726278,-0.34574974
1764918356681,1.6160861,-29.980194,-55.411404,-4.7293186,-1.2241739,-0.3115413
1764918356737,0.6751649,-50.476955,-43.461945,-6.5521407,-1.4257594,-0.040317107
1764918356793,2.2816741,-78.44363,-19.728222,-8.74759,-1.2815952,0.87109387
1764918356845,2.6623523,-78.44363,-6.8809357,-9.299812,-0.7318166,1.1362094
1764918356898,11.386824,-78.44363,2.0111294,-9.429316,-2.2406538,1.4880677
1764918356955,17.685968,-72.084625,40.54341,-8.126951,-2.8270843,1.8851302
1764918357007,16.378735,-49.421112,60.180653,-6.637662,-2.3652701,1.971873
1764918357060,30.72479,-20.391417,66.91794,-4.6450195,-0.93218035,1.8594738
1764918357112,28.06962,1.3479356,72.32644,-1.0445796,-0.007330383,0.13683382
1764918357165,22.926876,-2.0973208,66.23559,0.79534656,0.9505063,-0.5155703
1764918357218,17.302896,-5.3701944,59.63717,2.366492,0.6389651,-1.0775663
1764918357274,10.596737,-29.522902,40.75171,5.059186,2.1563544,-1.251052
1764918357326,9.251195,-39.142803,31.526848,6.0487876,2.3151793,-1.0311406
1764918357379,8.815451,-48.214436,24.210167,6.745174,2.0427334,-0.86132
1764918357432,5.7724204,-59.615623,6.9168487,7.666359,2.01219,-0.16737708
1764918357485,5.2648497,-60.151924,-0.91937345,7.7750926,0.9944886,-0.047647487
1764918357539,4.903325,-58.511894,-7.335834,7.6651373,1.0836749,0.058643065
1764918357591,2.8275523,-48.391605,-19.931728,6.9247684,0.7965683,0.56688297
1764918357644,3.9240966,-39.6815,-32.71437,6.177069,0.0720821,0.5290093
1764918357697,5.521029,-30.643387,-46.203304,5.0567427,0.047647487,0.4605924
1764918357750,3.335123,-10.680533,-64.62429,1.5125023,-0.267559,0.15149458
1764918357803,0.19153613,-11.310209,-63.63309,-0.6230826,-0.6731735,0.04886922
1764918357858,1.7836803,-16.213533,-59.464787,-2.7293458,-0.95294976,0.013439035
1764918357910,-2.4181437,-46.648624,-35.355175,-6.328564,-1.0592403,0.37018433
1764918357966,-2.3535004,-56.39303,-23.463177,-7.2387533,-0.79412484,0.6792821
1764918358018,-1.2545617,-62.61556,-12.260707,-7.7726493,-0.70005155,0.89919364
1764918358070,1.1468226,-68.792595,1.2114661,-7.897266,-1.971873,1.6285667
1764918358126,11.652579,-66.38882,6.7013707,-7.5356336,-4.0903535,2.4972172
1764918358178,10.771513,-61.62675,17.705122,-7.220427,-0.9431759,2.9321532
1764918358232,25.07208,-34.153286,46.914383,-5.3927183,-1.5858061,2.7415633
1764918358286,30.65536,-16.230293,57.633224,-3.8826594,-0.64751714,2.1991148
1764918358346,31.198843,-2.2409728,60.523026,-2.2883012,-0.36285394,1.3793337
1764918358398,30.380026,3.0262709,59.39775,0.61086524,0.38606682,-0.32375857
1764918358451,28.945898,-3.086126,56.512737,2.003638,0.2932153,-1.078788
1764918358505,18.241423,-27.241226,41.59686,4.641354,2.0659463,-1.921782
1764918358560,11.6669445,-40.471584,32.374397,5.80322,2.0549507,-1.9804251
1764918358613,7.5345526,-51.058746,19.041086,6.7292914,2.234545,-1.7629571
1764918358666,4.3358994,-53.725887,0.20829555,7.352374,1.4477507,-1.0629056
1764918358719,2.540248,-52.042763,-5.6527104,7.265631,1.0616838,-0.8405506
1764918358773,0.2633622,-47.692497,-11.508927,6.995629,1.2412782,-0.5143485
1764918358826,0.9672575,-38.015133,-22.845472,6.015801,0.25045475,-0.24923302
1764918358878,1.6448165,-30.854076,-31.297005,5.367062,-0.43127087,-0.4605924
1764918358930,0.33039984,-23.338678,-43.85459,4.3640213,0.42149702,-0.48624873
1764918358983,-4.1683054,-9.105149,-58.112064,1.2547172,-0.82711154,-0.3933972
1764918359035,-8.760384,-9.323022,-64.07602,-0.65240407,-0.29932398,-0.16371189
1764918359089,-9.141062,-17.791313,-63.041725,-3.2742376,-1.2217305,0.3005457
1764918359147,-7.6494746,-56.93172,-50.402733,-6.6278877,-1.9914207,1.4990633
1764918359199,-1.1372458,-78.44363,-33.954567,-8.316319,-2.204002,2.4141395
1764918359252,3.667917,-78.44363,-17.779343,-9.120218,-2.017077,3.0799825
1764918359304,20.63802,-78.44363,15.665261,-9.217957,-0.96761054,4.174653
1764918359359,28.548462,-78.44363,43.21534,-8.492249,-2.252871,3.8081338
1764918359413,34.093433,-53.08424,65.993774,-6.649879,-0.8332202,3.4807103
1764918359467,38.594532,-5.434838,66.29545,-2.3774874,0.057421334,1.5577064
1764918359519,31.141382,1.6160861,63.913216,-0.7464773,-0.02321288,0.5216789
1764918359571,27.7895,2.801216,58.51429,0.7733554,0.6084218,-0.12461651
1764918359624,22.31396,-11.987768,44.850582,3.2742376,0.93828905,-1.282817
1764918359676,21.748928,-22.771252,38.939297,4.327369,0.8491027,-1.7263051
1764918359729,17.166426,-35.992035,30.48537,5.3682837,2.0207422,-1.9498819
1764918359781,7.4004774,-47.98938,9.452309,6.839247,1.3903292,-1.7348573
1764918359833,4.8961425,-48.891994,1.4317327,6.994407,0.75869465,-1.7299703
1764918359886,2.255338,-46.030922,-5.161899,6.9162164,0.81000733,-1.6383406
1764918359939,0.58418524,-42.449196,-7.4004774,6.637662,0.6939429,-1.4880677
1764918359993,0.60094464,-38.869865,-14.69561,6.0219097,0.79045963,-1.3365731
1764918360046,-0.62967503,-36.20033,-22.481554,5.6773815,1.3353515,-1.1154399
1764918360100,-4.0222588,-31.35686,-35.247437,5.099503,1.3732251,-0.8735373
1764918360151,-5.8107276,-12.717999,-54.561462,2.5815165,-0.19425514,-0.2321288
1764918360203,-6.009446,-6.090849,-58.8399,0.7538077,0.03176499,0.012217305
1764918360255,-8.11395,-9.018958,-58.96919,-1.2571607,-0.91874135,0.23457226
1764918360307,-7.2448545,-33.11181,-47.94389,-4.849048,-1.3487904,1.1093313
1764918360359,-6.505046,-47.915157,-41.24252,-6.2357125,-1.536937,1.5833627
1764918360414,-4.915296,-63.02736,-32.07991,-7.360926,-1.1533136,2.1087067
1764918360468,4.307169,-78.44363,-9.457097,-8.471479,-2.6499333,3.368311
1764918360520,11.547235,-78.44363,2.0709844,-8.263785,-2.058616,3.885103
1764918360572,24.918852,-78.44363,14.542381,-7.784867,-2.542421,4.1856484
1764918360631,35.355175,-41.467575,54.743423,-5.64073,-1.5968018,3.3585372
1764918360683,40.39497,-18.80885,60.93004,-3.7861428,-0.59986967,2.5546384
1764918360736,37.569813,-5.985504,63.939552,-2.107485,-0.02321288,1.5076154
1764918360788,34.49566,2.0278888,56.33317,0.77213365,0.44959682,-0.2932153
1764918360847,31.347282,-4.996699,50.362034,2.0549507,0.47769663,-1.033584
1764918360901,29.640217,-14.918271,45.652637,3.1789427,0.49846604,-1.7458528
1764918360954,18.119318,-39.343918,29.506142,5.39394,1.9278907,-2.565634
1764918361007,11.262324,-48.09712,20.341137,6.2650337,2.485,-2.3909266
1764918361064,6.2728086,-53.792923,1.448492,7.0750413,1.772731,-1.717753
1764918361117,3.6248214,-52.636524,-3.5098996,7.1092496,1.4892895,-1.4856243
1764918361169,1.9608512,-50.443436,-9.148245,7.006624,1.251052,-1.2498302
1764918361222,0.79008657,-41.817127,-21.097706,6.338338,-0.12705997,-1.0665708
1764918361276,-2.1883004,-36.0064,-30.921116,5.7054815,1.187522,-0.9651671
1764918361329,-7.041347,-26.434381,-40.347088,4.8246136,0.96761054,-0.49357912
1764918361383,-3.9839516,-10.996569,-55.042698,2.1991148,0.7086037,-0.25411993
1764918361436,-9.6845455,-6.0980315,-60.95877,0.4642576,-0.45081854,-0.13439035
1764918361488,-7.78355,-8.1402855,-60.139954,-1.536937,-0.92485,0.23579398
1764918361542,-5.3582234,-33.31771,-46.658203,-5.0921726,-1.4880677,1.0567969
1764918361595,-4.4340615,-48.252743,-37.11731,-6.350555,-1.0922271,1.46852
1764918361648,-4.3047748,-60.75526,-26.812664,-7.2216487,-1.6102408,1.8081611
1764918361700,4.9440265,-75.9345,-8.734048,-7.7714276,-2.271197,3.1215215
1764918361752,9.801862,-78.44363,-0.6536171,-7.706676,-2.6963592,3.6114354
1764918361805,16.910246,-77.047806,8.985439,-7.411017,-1.3817772,4.053702
1764918361860,22.778435,-60.4512,31.371225,-6.8477993,-1.5601498,3.7189476
1764918361914,36.81564,-21.902157,53.72828,-4.382347,-0.52778757,2.3273966
1764918361967,33.147724,-11.386824,57.987564,-2.973692,0.46181414,1.3744467
1764918362021,24.598028,-0.04309563,56.814407,-0.13194689,0.5534439,-0.13194689
1764918362074,20.84871,-1.6112977,53.64448,1.1520919,0.49968776,-0.6365216
1764918362130,19.438524,-6.8330517,50.17289,2.3774874,0.6805039,-0.9663888
1764918362185,17.922995,-27.796682,37.411797,4.601037,1.409877,-1.5625933
1764918362237,15.916653,-37.68713,26.556486,5.606521,1.6187929,-1.6859881
1764918362289,13.819332,-44.32146,18.152838,6.2222733,1.5381587,-1.781283
1764918362343,7.989451,-51.092266,1.2521675,6.8966684,1.5296066,-1.645671
1764918362403,4.999093,-49.32295,-4.268862,6.908886,1.396438,-1.5222762
1764918362455,2.858677,-47.137043,-8.710106,6.767165,1.5809193,-1.2840388
1764918362507,0.15562311,-40.51947,-17.372328,6.208834,1.6872098,-0.6658431
1764918362563,-0.44532153,-37.672764,-24.574087,5.8276544,1.070236,-0.4007276
1764918362619,-2.0374656,-19.64682,-48.152184,4.083023,0.8063421,-0.010995574
1764918362671,-2.0278888,-9.883265,-57.293247,2.5448647,0.015882496,0.073303826
1764918362723,-1.8363527,-6.619968,-60.022636,0.63407815,-0.39950588,0.11484267
1764918362782,-4.474763,-18.332403,-56.38345,-3.2779028,-1.1203269,0.35430184
1764918362833,-3.857059,-33.399113,-47.04846,-5.018869,-1.2852604,0.7086037
1764918362884,-3.7900212,-48.791435,-37.701492,-6.373768,-1.2815952,1.105666
1764918362938,-1.9919758,-60.5757,-26.774357,-7.371922,-1.105666,1.5015068
1764918362991,2.9879637,-77.18188,-6.871359,-8.306545,-1.5589281,2.2736404
1764918363046,5.681441,-78.44363,-0.050278235,-8.388402,-0.83199847,2.5558603
1764918363100,22.950817,-56.258953,46.971844,-7.3816957,-0.6927212,2.2956316
1764918363152,22.409727,-31.26588,58.966793,-5.7348027,-0.7892379,1.65911
1764918363204,24.413675,-13.39077,55.650826,-4.01705,1.282817,1.1081096
1764918363258,13.713987,-6.069301,45.34618,-2.71102,1.8399261,0.20158553
1764918363312,3.040636,-2.1906946,28.8214,-0.88086766,1.3219124,-0.65484756
1764918363364,-4.3766007,-1.5729905,23.175873,-0.33108896,0.93828905,-0.7086037
1764918363418,-7.8027034,0.35673606,19.098547,0.09896017,-0.28955013,-0.4642576
1764918363470,-2.8203697,-0.9504981,13.345281,0.43860126,-0.32375857,0.2773328
1764918363523,-1.4820108,-1.2114661,11.96622,0.52778757,-0.44715336,0.3726278
1764918363576,-0.8690952,-0.7086837,11.0061455,0.6035349,-0.79779,0.35185838
1764918363631,-0.033518825,0.37349546,9.399636,0.6414085,-0.42760566,0.3652974
1764918363684,0.8643068,0.6584055,8.78672,0.643852,-0.49357912,0.35430184
1764918363738,1.745373,1.127669,7.9272017,0.5571091,-0.23823744,0.32986724
1764918363790,2.3008277,1.4030021,7.6135616,0.5021312,-0.1160644,0.30787608
1764918363841,2.2266076,1.6807296,7.66384,0.43493605,-0.02321288,0.28344148
1764918363893,2.018312,1.6950948,7.73806,0.3933972,-0.12217305,0.24801129
1764918363945,2.1404164,2.3295584,7.9631147,0.2932153,-0.1160644,0.25289822
1764918363998,2.4301147,2.255338,7.9487495,0.28099802,-0.33353242,0.23945917
1764918364051,2.9017725,2.2697031,8.147469,0.23457226,-0.16371189,0.25411993
1764918364104,3.5529952,2.4492683,8.228871,0.19181168,-0.13561209,0.1685988
1764918364158,3.4883518,2.5689783,8.461109,0.16249016,0.05497787,0.13805555
1764918364210,3.8762126,2.695871,8.078036,0.16249016,-0.18325958,0.059864793
1764918364262,3.4715924,2.7629087,7.9870567,0.080634214,-0.07086037,-0.02076942
1764918364317,3.3375173,2.942474,7.9272017,0.05375614,-0.059864793,-0.043982297
1764918364370,2.8514943,2.7581203,8.590396,0.010995574,0.06963864,-0.05131268
1764918364422,2.870648,2.7964275,8.0924015,0.019547688,-0.0842994,-0.07941248
1764918364475,2.7748797,2.5474305,8.101978,-0.013439035,0.09040806,-0.06841691
1764918364528,2.542642,2.825158,8.14268,-0.035430185,-0.02076942,-0.089186326
1764918364579,2.492364,2.7820623,8.4347725,-0.09285152,0.096516706,-0.07086037
1764918364631,2.516306,2.695871,8.3868885,-0.10140363,-0.032986723,-0.080634214
1764918364682,2.542642,2.6479871,8.461109,-0.1282817,0.039095376,-0.0720821
1764918364733,2.4995465,2.5091233,8.75799,-0.13805555,0.096516706,-0.06963864
1764918364787,2.3989902,2.4133554,9.083601,-0.13805555,0.004886922,-0.080634214
1764918364839,2.0757728,2.4181437,9.0716305,-0.12705997,0.073303826,-0.07086037
1764918364891,1.9153614,2.3535004,9.150639,-0.11728613,0.10262536,-0.05009095
1764918364943,1.9560628,2.4636335,9.083601,-0.09773844,0.010995574,-0.030543262
1764918364995,2.147599,2.3582888,9.229648,-0.103847094,0.09896017,-0.0012217305
1764918365048,2.2385786,2.1930888,9.212888,-0.09040806,0.032986723,-0.009773844
1764918365101,2.0326772,2.267309,9.301474,-0.080634214,0.02076942,-0.0036651916
1764918365154,2.1068976,2.147599,9.165004,-0.073303826,-0.002443461,-0.0012217305
1764918365206,2.219425,2.2601264,9.344569,-0.06841691,0.013439035,0.008552114
1764918365260,2.954445,2.0829554,9.947908,-0.042760566,0.061086524,-0.019547688
1764918365312,3.787627,1.9057846,10.443508,0,-0.05131268,-0.095294975
1764918365366,3.4213142,2.2720973,10.795456,0.036651913,0.21135938,-0.16982053
1764918365420,2.0709844,2.585738,10.840945,0.14905111,0.23457226,-0.2846632
1764918365472,1.5346833,2.4899697,10.84334,0.22968534,0.20158553,-0.25045475
1764918365525,0.15801731,2.0925324,12.188881,0.37873647,-0.48258355,-0.1881465
1764918365578,3.8067808,2.0901382,8.954314,0.3921755,0.16737708,-0.10262536
1764918365635,4.27365,5.118803,9.291897,0.30787608,0.4605924,-0.20891592
1764918365688,-0.90261406,4.072537,17.798496,0.3042109,-0.24923302,-0.30176744
1764918365740,6.14831,4.5034933,22.316355,0.6927212,-0.312763,-0.34697145
1764918365793,7.9152308,3.5697548,26.1375,1.1191051,-0.16371189,-0.4801401
1764918365846,9.636662,1.9033904,29.40319,1.6481144,0.043982297,-0.70738196
1764918365903,9.528923,-8.111555,30.834923,3.0604348,0.8894198,-1.073901
1764918365955,9.737218,-15.507244,28.63944,3.8484511,1.0519099,-1.2009611
1764918366008,10.038888,-22.12003,23.075315,4.658458,1.3133603,-1.2962561
1764918366062,5.872977,-31.426292,5.0493712,5.828876,1.8680259,-1.1716396
1764918366114,2.6048915,-31.974564,-2.1308396,6.0182443,2.0830505,-0.90408057
1764918366167,1.0702082,-31.20842,-6.979098,5.9999185,1.8154916,-0.59742624
1764918366221,0.16759412,-28.294676,-17.908628,5.494122,0.7819075,-0.07574729
1764918366274,-0.21787235,-24.128765,-25.359385,4.967556,0.8552113,0.08552113
1764918366327,0.04309563,-18.83758,-34.340034,4.206418,0.6951646,0.24556783
1764918366380,1.6639702,-6.4667387,-52.880733,1.6957619,-0.3494149,0.23701571
1764918366434,0.5267244,-4.6806645,-54.475273,0.07941248,-0.1282817,0.13439035
1764918366487,-2.918532,-8.37013,-55.35873,-1.6285667,-0.9334021,0.089186326
1764918366544,-4.309563,-28.785486,-41.515457,-4.845383,-1.5906931,0.689056
1764918366596,-3.229778,-41.39814,-31.069555,-5.9424973,-1.749518,1.1325442
1764918366648,-1.3192052,-49.99572,-19.993979,-6.6559877,-1.0555751,1.5650368
1764918366701,3.8235402,-58.966793,0.5626374,-7.260744,-2.3102922,2.1539109
1764918366754,7.405266,-54.20712,8.3629465,-7.071376,-2.4984388,2.574186
1764918366808,17.518373,-53.912632,18.06425,-6.4934974,-2.823419,3.068987
1764918366861,29.154194,-25.380932,51.784187,-4.7635274,-1.0433578,2.4507914
1764918366913,26.618734,-9.916783,54.511185,-3.0799825,0.2565634,1.7311921
1764918366967,26.159048,0.8762778,53.81926,-1.5906931,-0.0012217305,0.90041536
1764918367023,23.015461,4.9679685,47.8984,0.84299403,0.27488935,-0.2565634
1764918367075,22.845472,-1.3239936,48.635815,1.9046779,0.53023106,-0.75625116
1764918367127,20.087353,-8.987833,41.25449,3.0934217,1.3267993,-1.1239921
1764918367180,12.263102,-26.18299,24.499866,4.950452,1.5479325,-1.690875
1764918367232,8.305486,-30.20046,14.84405,5.529552,1.7275269,-1.6468927
1764918367286,4.8602295,-32.755074,9.351752,5.87408,1.2327261,-1.536937
1764918367339,1.4341269,-32.79817,-2.8514943,6.0353484,1.6285667,-1.0348058
1764918367391,2.0326772,-31.68247,-6.181829,5.8618627,1.1716396,-0.8576548
1764918367443,0.2801216,-30.178913,-6.196194,5.594304,1.0946705,-0.6914995
1764918367498,2.6503813,-28.88365,-15.823279,5.2363367,0.52412236,-0.45204028
1764918367552,0.8475474,-26.733656,-22.019472,4.8710394,0.81489426,-0.47525316
1764918367611,0.11252748,-22.079329,-33.73909,4.34203,0.66339964,-0.3555236
1764918367663,-2.456451,-7.053318,-54.594982,1.8606955,-0.10873401,-0.25045475
1764918367715,-3.5865142,-5.2026005,-57.786453,0.105068825,-0.4361578,-0.17470746
1764918367768,-5.097255,-7.843405,-55.703495,-1.754405,-1.0714576,-0.0012217305
1764918367822,-8.377312,-33.59065,-40.871418,-4.8014007,-1.600467,0.8943067
1764918367876,-4.06296,-43.581654,-32.139763,-5.828876,-1.9657644,1.5125023
1764918367928,-0.08140286,-52.064312,-23.281218,-6.5704665,-2.1160371,2.0390682
1764918367982,4.292804,-64.01856,-4.8482585,-7.263188,-1.3451253,2.8576276
1764918368034,6.8785415,-65.761536,1.6304513,-7.285179,-0.5681047,2.9981265
1764918368091,9.991004,-63.496624,16.259024,-7.1410146,-0.8894198,2.823419
1764918368144,24.46156,-26.934769,49.33492,-5.508783,-0.6059783,2.2247713
1764918368197,27.657818,-12.72997,58.404156,-4.0634756,-0.8698721,1.5552629
1764918368250,21.990742,-2.908955,60.341064,-2.493552,0.11728613,0.8918633
1764918368311,19.249382,4.501099,57.02031,0.41905355,0.36041048,-0.15515977
1764918368363,16.620548,0.6584055,55.291695,1.8216002,0.38362336,-0.5009095
1764918368416,14.623784,-16.587029,40.34948,4.2540655,0.9126327,-1.0958922
1764918368469,14.7554655,-28.009766,30.147787,5.1874676,0.86009824,-1.3732251
1764918368523,9.706094,-35.707123,19.665974,5.865528,1.6297885,-1.4501941
1764918368577,4.012682,-40.749313,2.8275523,6.5338144,1.3219124,-1.1142182
1764918368630,4.477157,-40.636784,-1.9776106,6.5167103,0.9114109,-1.0128145
1764918368682,2.2146366,-39.805996,-5.932832,6.3835416,0.9896017,-0.87109387
1764918368736,-0.22266077,-33.935413,-14.817715,5.8679714,0.9578367,-0.47036624
1764918368788,0.22026655,-29.98977,-20.580557,5.415931,0.20158553,-0.41172317
1764918368842,0.095768064,-24.957159,-34.70635,4.806288,0.41172317,-0.376293
1764918368900,-2.885013,-9.667787,-54.87989,2.2785273,-0.058643065,-0.15271631
1764918368957,-2.3678656,-5.5282116,-60.31952,0.5009095,-0.21624629,-0.04642576
1764918369015,-4.8362875,-7.5465236,-61.372967,-1.4709635,-0.72082096,0.13683382
1764918369067,-4.3047748,-33.947388,-47.390827,-5.067738,-1.7763962,1.0421361
1764918369119,-2.753332,-48.276684,-36.341587,-6.361551,-1.9779817,1.5430456
1764918369182,0.18435353,-68.9961,-13.244724,-7.5808377,-2.2773056,2.7953193
1764918369234,4.309563,-74.608116,-5.9807158,-7.623598,-2.9969049,3.426954
1764918369287,10.216059,-75.82676,2.2026656,-7.484321,-0.6230826,4.0365977
1764918369341,21.815966,-57.566185,34.268208,-6.6217794,0.26511553,3.835012
1764918369395,27.729645,-36.28173,48.47061,-5.4819045,-1.7397442,3.128852
1764918369448,40.478767,-21.808783,57.939682,-4.05248,-0.6291912,2.670703
1764918369500,39.861065,-0.12689269,60.803146,-0.7415904,-0.15271631,0.5119051
1764918369553,35.02238,0.46686932,55.327606,0.81489426,0.312763,-0.3811799
1764918369607,30.652964,-4.687847,47.896004,2.043955,0.9101892,-1.0274754
1764918369660,25.912445,-24.760834,34.78775,4.0695844,0.72692966,-2.2602015
1764918369713,17.946936,-34.44538,24.72492,4.8857,1.8399261,-2.5607471
1764918369765,12.133814,-37.68713,15.998055,5.4843483,1.8423696,-2.5583036
1764918369819,3.8139634,-44.12274,5.0421886,6.41042,1.6933185,-2.244319
1764918369872,1.4676456,-44.043736,-2.0350714,6.623001,1.709201,-1.9339994
1764918369928,-0.08379706,-41.59686,-7.539341,6.53748,1.8704693,-1.4905112
1764918369981,-1.4700398,-35.54671,-14.652514,5.8765235,1.5784758,-0.6072
1764918370033,-0.91458505,-30.969,-19.656397,5.4440312,1.3891076,-0.23335053
1764918370086,-0.7350199,-26.621128,-25.297134,4.8588223,1.1472049,-0.0012217305
1764918370138,2.1140802,-15.693993,-43.490673,3.2070425,0.5839872,0.30543262
1764918370192,0.90500826,-8.255207,-55.167194,1.9743165,-0.21624629,0.15515977
1764918370244,-0.0047884034,-4.7524905,-57.29564,0.23945917,-0.21013765,0.09896017
1764918370297,-1.5945383,-18.813637,-55.140858,-3.5674531,-1.409877,0.43371433
1764918370350,-4.158728,-36.169205,-48.82735,-5.23145,-1.3842206,0.7867944
1764918370402,-3.6990416,-51.25507,-39.597702,-6.597345,-1.4367551,1.2241739
1764918370454,3.095703,-73.999985,-13.785813,-8.191703,-2.125811,2.389705
1764918370507,5.5138464,-78.44363,-2.5354595,-8.18926,-2.3371704,2.7782152
1764918370560,12.976573,-78.44363,5.8921304,-7.882605,-1.7922786,3.3304374
1764918370615,25.349808,-50.5416,43.0669,-6.546032,-0.49357912,2.8722885
1764918370667,27.320236,-30.901962,52.121773,-5.2534413,-0.453262,2.1331415
1764918370719,27.442339,-15.5599165,59.859833,-3.657861,-0.87598073,1.486846
1764918370774,17.848774,1.2856863,53.33084,-0.83077675,0.0061086523,0.5119051
1764918370827,18.679562,2.6001031,47.656586,0.2932153,-0.35918877,0.1685988
1764918370879,22.761675,-0.021547815,47.718834,1.2754866,0.12583824,-0.16493362
1764918370935,22.275652,-13.160927,40.054993,3.2840116,0.15271631,-1.078788
1764918370988,23.47036,-23.913286,33.07111,4.274835,0.9639453,-1.505172
1764918371041,18.112135,-33.56192,27.691338,5.0982814,1.8374827,-1.8081611
1764918371098,8.7053175,-45.240837,9.198523,6.4287457,2.1661282,-1.5479325
1764918371151,3.4476504,-45.822628,2.1284454,6.7928214,2.0024164,-1.1985176
1764918371205,1.0486604,-45.896847,-3.9360676,6.972416,1.0983357,-0.9101892
1764918371260,2.4396915,-35.94894,-22.244528,6.437298,0.50335294,-0.9651671
1764918371314,-2.408567,-26.597187,-30.272285,5.5161133,1.4844025,-0.6963864
1764918371367,-0.7781156,-21.329943,-35.73346,4.565607,0.53878313,-0.5839872
1764918371419,-6.385336,-6.6510925,-45.93276,2.140472,0.24312437,-0.17837265
1764918371472,-7.1849995,-4.8123455,-42.33667,0.8173377,-1.5137241,-0.008552114
1764918371524,-7.9607205,-4.6782703,-44.299915,-0.4288274,-1.7910569,0.30176744
1764918371578,-9.380483,-14.417883,-39.98556,-2.9394836,-1.7592919,1.2131784
1764918371632,-8.506598,-22.570139,-36.44454,-4.0231586,-1.8387043,1.7250835
1764918371685,-6.7229185,-32.40552,-28.718449,-4.8905873,-2.0867157,2.2540927
1764918371738,-2.4468741,-49.955017,-15.500062,-6.0548964,-1.1716396,3.3035593
1764918371790,0.5243302,-56.79286,-8.949526,-6.367659,-1.9120082,3.6713002
1764918371844,7.9990277,-59.93884,-1.7932571,-6.4128633,-1.5076154,4.1856484
1764918371900,25.617958,-45.899242,34.624947,-6.0939918,-0.15271631,3.8081338
1764918371953,27.528532,-31.407139,46.078804,-5.0433035,0.26633725,2.9712486
1764918372006,37.998375,-15.59583,52.251057,-3.5931094,-1.8680259,2.0622811
1764918372060,32.671276,0.45250413,53.673214,-0.6243043,-0.05009095,0.45814893
1764918372117,27.521349,1.7908629,48.307808,0.66950834,0.5522222,-0.18081611
1764918372172,28.692114,0.40222588,44.256817,1.6676621,0.02321288,-0.816116
1764918372228,28.289886,-18.198328,35.161247,3.5185838,1.0042624,-2.021964
1764918372283,23.415293,-26.949135,27.02096,4.3676863,1.9853121,-2.443461
1764918372335,11.674128,-36.913803,10.9582615,5.4586916,2.2162192,-2.5411994
1764918372387,8.6813755,-43.32308,5.60722,5.911954,1.8570304,-2.470339
1764918372439,3.9911342,-44.141895,-0.23702596,6.2124996,1.577254,-2.289523
1764918372496,1.6663644,-39.62404,-8.870518,6.073222,1.2241739,-1.8839084
1764918372552,-1.4580688,-36.518757,-13.098678,5.880189,1.8167132,-1.4465289
1764918372605,-3.2393548,-33.164482,-20.195091,5.6370645,1.3341297,-1.1386528
1764918372657,-7.965509,-21.303606,-39.418137,4.2540655,0.5448918,-0.6462954
1764918372711,-8.588001,-13.304579,-50.151344,3.0860913,0.5839872,-0.35308012
1764918372763,-10.316615,-6.145916,-56.563015,1.5027285,-0.49357912,-0.15271631
1764918372817,-12.162544,-9.854534,-57.468025,-2.3286183,-0.66828656,0.6560693
1764918372869,-11.48738,-22.788012,-49.897556,-4.05248,-1.5760323,1.1838568
1764918372922,-9.478644,-37.330395,-40.236954,-5.3841662,-1.958434,1.8423696
1764918372974,-3.6583402,-59.965176,-19.553446,-6.8062606,-2.4446826,3.1716123
1764918373028,1.8938135,-67.8828,-12.282255,-6.9907417,-2.4410176,3.8606684
1764918373084,5.719748,-73.28172,-3.8833952,-7.067711,-1.4538593,4.414112
1764918373137,23.57331,-66.06321,19.9437,-6.459289,-0.5742133,4.8698177
1764918373189,33.348835,-48.717216,38.522705,-5.644395,-2.324953,4.225966
1764918373242,47.194504,-27.703308,49.07395,-3.980398,-1.4318681,3.585779
1764918373295,45.432373,-0.92176765,52.557514,-1.2925909,-0.548557,1.1728612
1764918373349,39.49475,-0.9600749,50.237534,0.012217305,0.52412236,0.17592919
1764918373403,34.605793,-1.9201498,45.36773,1.174083,0.5510005,-0.6389651
1764918373456,32.848446,-12.708423,36.806065,3.0201178,0.88208944,-1.9022343
1764918373508,30.372843,-25.61317,33.84683,3.9425242,0.9309586,-2.6035078
1764918373560,29.302635,-38.419754,27.48783,4.84294,1.3353515,-3.2143729
1764918373613,11.549629,-57.55182,9.92636,6.486167,2.3322835,-3.5992181
1764918373669,4.608838,-60.360218,1.7070658,6.9931855,1.600467,-3.4526103
1764918373721,1.1563994,-57.17354,-6.2105594,7.1068063,1.672549,-3.104417
1764918373774,-1.8148049,-48.626236,-14.216769,6.695083,1.6151277,-2.0476203
1764918373826,-2.645593,-45.130703,-20.417751,6.425081,1.831374,-1.5393804
1764918373878,-5.197812,-40.30878,-29.819782,5.9681535,1.1203269,-1.2021828
1764918373932,-10.503363,-20.748152,-54.20233,3.8362339,0.8246681,-0.593761
1764918373987,-12.01171,-10.242394,-60.393738,1.9779817,-0.453262,-0.25289822
1764918374039,-12.976573,-7.5968018,-61.028202,-0.12950343,-0.34330627,0.24678956
1764918374092,-9.188946,-25.04335,-49.172115,-4.0146065,-1.2473868,1.2962561
1764918374144,-6.26802,-38.90099,-40.433277,-5.4611354,-1.1447614,1.8106046
1764918374203,-5.0134583,-51.60462,-30.765491,-6.5387015,-1.2742649,2.2174408
1764918374256,1.3623008,-67.29383,-9.155427,-7.425678,-1.9975294,3.3805282
1764918374308,5.195418,-70.279396,-0.7422025,-7.3010616,-2.9150488,3.7543778
1764918374360,12.421119,-63.503807,11.781867,-6.632775,-1.6346754,4.359134
1764918374413,28.33777,-34.93619,41.19703,-4.9565606,-0.61453044,4.0280457
1764918374468,32.266655,-18.01158,36.38468,-3.7885861,-0.7696902,3.1838295
1764918374520,36.655228,-5.530606,42.4899,-2.7904325,-1.1838568,2.4019222
1764918374572,41.762062,6.0621185,50.82172,-0.7049385,0.062308256,0.57787853
1764918374624,38.910564,5.683835,47.445896,0.6010914,0.91507614,-0.4202753
1764918374677,32.731133,1.2521675,45.896847,1.7238617,1.4538593,-1.2473868
1764918374738,23.25967,-22.567745,32.089485,4.0329323,2.026851,-2.3652701
1764918374792,13.5535755,-31.97217,23.223757,4.982217,2.403144,-2.4801128
1764918374844,9.160215,-36.221878,13.972561,5.6602774,2.1734586,-2.3200662
1764918374896,3.787627,-36.54749,0.15083471,6.3578854,0.7684685,-1.7751744
1764918374951,4.8458643,-36.123714,-5.6335564,6.304129,0.5558874,-1.7654005
1764918375003,2.5091233,-34.99844,-7.1107793,6.081774,1.0360274,-1.6859881
1764918375057,-0.50038815,-31.304188,-15.705963,5.362175,1.3988814,-1.2608259
1764918375110,-3.9791632,-28.708872,-21.076157,4.946787,0.028099801,-1.2473868
1764918375167,-5.401319,-24.49747,-36.98802,4.3689084,1.53205,-0.8772025
1764918375219,-9.967062,-9.8042555,-57.427322,1.5674802,-0.453262,-0.2846632
1764918375271,-11.097125,-7.153875,-60.80075,-0.36041048,-0.46303585,0.16493362
1764918375324,-9.727641,-13.302185,-55.588573,-2.3542747,-1.4941764,0.6218608
1764918375377,-6.1650696,-36.24103,-35.058296,-5.2925363,-1.78617,1.6835446
1764918375430,-4.0557775,-45.24323,-24.681826,-6.1184263,-1.8399261,2.1734586
1764918375482,-1.3838485,-52.251057,-15.897499,-6.6401052,-2.1087067,2.761111
1764918375536,5.0781016,-59.524643,-3.3494883,-6.7525043,-1.5711454,3.4550538
1764918375588,12.540829,-59.87659,3.964798,-6.5350366,-2.0818288,3.780034
1764918375640,16.048334,-55.646034,18.86152,-6.432411,-0.11484267,3.7519343
1764918375693,33.85401,-22.996307,49.445053,-4.509407,-0.065973446,2.8979447
1764918375747,34.584244,-9.054871,53.18719,-3.1093042,-0.75991637,1.8521434
1764918375802,32.395943,0.6967127,56.87426,-1.7446312,-0.062308256,1.0421361
1764918375855,21.985954,4.0414124,42.78199,0.82344633,0.267559,-0.4251622
1764918375907,18.962078,0.7398083,33.741486,1.6896533,0.37751472,-0.8136725
1764918375959,16.180016,-1.3599066,27.483042,2.2455406,0.84788096,-1.0042624
1764918376013,15.248671,-12.20564,23.116018,3.19116,2.1734586,-1.3023647
1764918376067,14.152126,-16.505627,22.290018,3.8203511,2.2821925,-1.3121386
1764918376119,14.975732,-23.350649,21.571756,4.5949283,1.4245378,-1.5442673
1764918376172,7.505822,-34.560303,6.682217,5.793446,1.4196508,-1.9547688
1764918376224,2.0614076,-36.566643,-0.830788,6.0219097,1.7189748,-1.8545868
1764918376276,-0.59376204,-35.376724,-6.2105594,6.00114,2.1539109,-1.4807373
1764918376329,-2.2409728,-30.095116,-16.412252,5.507561,2.117259,-0.29565877
1764918376383,-2.2170308,-25.857378,-28.038496,5.109277,1.672549,0.16737708
1764918376437,-2.099715,-18.839973,-35.484463,4.3090434,0.12950343,0.28099802
1764918376491,0.29209262,-4.5178585,-55.332394,1.8961257,0.119729586,0.39095375
1764918376543,0.49081135,-3.2465374,-58.80399,0.15515977,-0.20525073,0.33108896
1764918376595,-0.7733272,-5.7484784,-56.57738,-1.65911,-0.6609562,0.3286455
1764918376653,-2.621651,-27.23165,-38.908173,-4.7403145,-1.8228219,0.8002335
1764918376707,-2.4468741,-37.31124,-29.264328,-5.729916,-1.7959439,1.2351695
1764918376759,-1.055843,-46.143448,-20.578163,-6.400646,-1.7873917,1.6945401
1764918376812,3.5314474,-56.704273,-6.129156,-6.934542,-1.7666223,2.5240953
1764918376864,7.9990277,-60.362614,2.6719291,-6.967529,-1.1154399,2.8893926
1764918376917,11.733982,-56.457672,8.231265,-6.8416905,-1.4025466,2.819754
1764918376975,20.209457,-38.300045,42.70298,-5.3194146,-0.9798279,2.8221974
1764918377027,31.957804,-22.448034,52.131348,-3.9217548,-0.91507614,2.3286183
1764918377080,29.008148,-7.177817,51.051563,-2.4141395,0.58032197,1.609019
1764918377132,27.849354,3.8187518,51.001286,-0.2321288,0.15760323,0.22357668
1764918377190,28.90759,1.4772224,49.54561,0.8210029,0.267559,-0.37751472
1764918377242,29.570786,-4.675876,48.317383,1.971873,0.5045747,-1.0225884
1764918377294,21.554998,-23.97314,35.295322,4.1184535,1.3158038,-2.2088888
1764918377347,17.171215,-34.512417,26.961105,4.9968777,1.8240436,-2.4019222
1764918377400,11.568783,-39.91374,19.694704,5.644395,1.9339994,-2.3860397
1764918377458,8.635885,-46.773125,6.751649,6.486167,1.4208726,-2.1099286
1764918377511,5.8466406,-48.65736,-0.7661445,6.7744956,1.5674802,-1.9828686
1764918377563,2.0398598,-49.74912,-6.667852,6.8844514,1.6542231,-1.7201965
1764918377615,-4.608838,-38.534676,-20.681114,6.3395596,1.3891076,-0.96761054
1764918377667,-4.4484267,-31.74472,-29.44868,5.667608,1.2400564,-0.48991394
1764918377723,-5.3318872,-23.432053,-42.051758,4.6987753,0.73426,-0.19181168
1764918377776,-6.1100025,-7.81228,-59.02904,1.7006488,0.004886922,0.23457226
1764918377828,-6.4547677,-5.159505,-60.142345,-0.24923302,-0.13439035,0.45204028
1764918377882,-6.8210807,-11.3964,-54.05868,-2.180789,-0.6792821,0.6951646
1764918377935,-3.7110126,-31.936256,-35.54671,-5.000543,-1.4062119,1.3720033
1764918377987,-2.6886885,-41.07253,-27.296293,-5.893628,-1.1899655,1.7128662
1764918378041,-1.8411411,-48.985367,-18.981232,-6.546032,-1.0213667,2.0048597
1764918378093,3.6128504,-59.522247,-5.671864,-7.0603805,-1.7971655,2.8026497
1764918378146,5.305551,-60.745686,1.2114661,-7.040833,-1.8216002,3.1813862
1764918378199,11.899182,-60.42965,12.706028,-6.894225,-1.1337659,3.500258
1764918378251,27.432762,-39.868248,41.108444,-5.3194146,-1.1960741,3.911981
1764918378307,35.88669,-24.167072,47.201687,-3.835012,-1.6383406,3.1129694
1764918378360,42.288784,-11.032481,50.385975,-2.2540927,-0.6206391,2.3090706
1764918378412,36.561855,0.8834604,43.189003,0.2321288,-0.06963864,0.21991149
1764918378464,32.23314,-1.721431,39.542637,1.1508701,0.5546656,-0.5155703
1764918378516,29.755138,-3.3614593,37.280113,1.9865338,0.5412266,-1.1068878
1764918378572,27.935545,-20.041862,33.758244,3.6383133,1.1313224,-2.2797492
1764918378625,26.218903,-30.356083,27.186161,4.505742,1.6077974,-2.7281241
1764918378678,20.891804,-39.66953,19.654001,5.2656584,2.2321017,-2.9944615
1764918378730,10.374076,-48.5999,4.1299977,6.2992425,2.20278,-2.878397
1764918378782,6.50744,-50.278236,-1.0606314,6.5558057,2.3628268,-2.6120598
1764918378835,2.6312277,-50.292603,-5.913678,6.7158527,2.6755898,-2.1429152
1764918378892,-0.25139117,-44.390892,-18.456902,6.5753536,2.5399778,-0.86376345
1764918378944,-0.5386954,-39.252937,-28.933928,6.1990604,1.7837266,-0.3811799
1764918378995,-1.9321208,-29.221231,-45.439552,5.404936,1.1191051,-0.089186326
1764918379048,-2.9975405,-6.481104,-61.59084,1.9547688,-0.07574729,0.2003638
1764918379100,-2.3774424,-5.729325,-62.541336,-0.16615535,-0.29443705,0.34697145
1764918379153,-4.1635165,-12.112267,-59.184666,-2.2198844,-0.82344633,0.51068336
1764918379208,-1.0103531,-36.47327,-40.2178,-5.4880133,-1.7470746,1.2205088
1764918379260,-0.16759412,-48.820168,-29.439104,-6.5790186,-1.7751744,1.613906
1764918379312,1.7932571,-59.11763,-19.821596,-7.285179,-1.8167132,1.9828686
1764918379367,3.1603463,-65.61549,-11.252748,-7.663915,-1.1484267,2.3139575
1764918379423,12.842498,-69.88675,4.534618,-7.706676,-2.1160371,2.823419
1764918379477,19.309237,-59.90053,28.830976,-7.3230524,-1.8301523,2.7097983
1764918379528,30.174124,-23.863008,53.069874,-4.7342057,-0.5119051,2.0647244
1764918379581,26.834213,-11.11149,50.80975,-3.1752775,-0.029321533,1.2070698
1764918379633,16.266207,-4.0940847,42.60003,-1.813048,0.5143485,0.52290064
1764918379690,6.811504,0.33039984,23.458387,-0.2406809,0.78801614,0.119729586
1764918379744,4.4580035,2.1045034,14.834474,0.029321533,0.18203785,0.09896017
1764918379797,7.3047094,-0.260968,9.078813,-0.058643065,0.68539083,0.21868975
1764918379848,5.130774,-0.33518824,6.7348895,-0.44226643,-0.25289822,-0.018325957
1764918379900,3.3039982,-0.89303726,8.259995,-0.44837508,-0.14660765,-0.0720821
1764918379953,3.4476504,-0.8858546,8.659827,-0.35185838,-0.7476991,-0.12461651
1764918380011,3.4524388,-2.1883004,8.552089,-0.29565877,-0.535118,-0.09040806
1764918380064,3.751714,-1.6184803,8.566454,-0.35918877,-0.44959682,-0.10751228
1764918380116,4.9105077,-2.2601264,8.89446,-0.41905355,-0.02443461,-0.096516706
1764918380169,5.9783216,-2.0398598,9.16261,-0.40683624,-0.0061086523,-0.19792034
1764918380225,5.8107276,-1.9512744,9.279925,-0.3640757,-0.08552113,-0.30176744
1764918380278,3.976769,-1.4580688,9.397242,-0.3371976,0.019547688,-0.34330627
1764918380330,2.8778305,-1.958457,10.395624,-0.2406809,0.035430185,-0.34574974
1764918380382,2.3104045,-1.9153614,11.03727,-0.23335053,0.17959438,-0.30787608
1764918380435,1.1707647,-1.4269443,11.834539,-0.1563815,0.09162979,-0.26511553
1764918380487,2.6048915,-2.2098482,11.518504,0.02443461,0.013439035,-0.16126843
1764918380546,2.9975405,-2.4109612,10.477027,-0.20891592,1.8044959,-0.1685988
1764918380599,2.0494366,-2.15957,11.087548,-0.18936823,1.6310102,-0.2125811
1764918380656,3.071761,-1.2425907,8.3868885,0.065973446,1.2449434,-0.112399206
1764918380711,0.18435353,-1.8004397,10.010158,0.08674286,0.4605924,-0.17470746
1764918380766,-2.2385786,-1.922544,9.574412,0.09162979,0.95905846,0.037873644
1764918380819,-1.3024458,-2.456451,9.957485,0.13927728,0.043982297,0.064751714
1764918380871,-2.207454,-1.3551182,9.246407,0.16249016,0.44593164,0.23335053
1764918380928,1.7884687,-2.5450363,8.616732,0.27000242,-0.48380527,0.31642818
1764918380980,1.7525556,-1.9129672,7.5824366,0.25045475,-0.059864793,0.28099802
1764918381032,2.1212628,-1.8028339,8.379706,0.17104226,0.20158553,0.25045475
1764918381084,1.757344,-0.6488287,9.011775,0.23701571,-0.12950343,0.06719518
1764918381137,1.2904748,-0.12689269,8.935161,0.22357668,0.042760566,-0.007330383
1764918381192,0.6943185,0.2705448,8.62152,0.19058995,0.047647487,-0.08674286
1764918381248,0.36152446,-0.08619126,9.507375,0.073303826,0.21502456,-0.14294247
1764918381300,0.05267244,-0.1316811,9.44752,0.0842994,0.03176499,-0.1966986
1764918381353,-0.60333884,0.045489833,9.531317,0.06963864,0.23579398,-0.18081611
1764918381405,-0.61770403,-0.2777274,9.31105,0.08307768,0.004886922,-0.14782938
1764918381458,-1.0582372,-0.37828386,9.478644,0.059864793,0.24556783,-0.11484267
1764918381512,-0.82599956,-0.39983168,9.428367,0.04886922,-0.02687807,-0.1160644
1764918381565,-1.2330139,-0.32321724,9.5385,0.012217305,-0.012217305,-0.059864793
1764918381618,-0.60573304,-0.5363012,9.605537,0.004886922,-0.07941248,-0.02443461
1764918381670,-0.39504328,-0.7374141,9.605537,0.010995574,-0.028099801,-0.017104227
1764918381727,-0.5626374,-0.6536171,9.715671,0.004886922,0.065973446,-0.002443461
1764918381780,-0.2681506,-0.63206923,9.497798,0.010995574,-0.2724459,-0.040317107
1764918381832,-0.06943185,-0.7541735,9.816227,0,-0.2761111,-0.064751714
1764918381884,0.81642276,-0.90740246,9.186552,-0.02687807,-0.82344633,-0.12217305
1764918381936,0.9959879,-1.0127473,9.753978,-0.06719518,0.06719518,-0.09162979
1764918381990,-1.5777789,-0.5506664,9.543288,-0.008552114,-0.30665436,-0.17470746
1764918382051,1.2138603,-1.0893618,10.398018,0.015882496,-0.0842994,0.21135938
1764918382104,-0.34476504,0.85473,9.421184,0.05497787,-0.1441642,0.1881465
1764918382158,0.58657944,0.06703765,10.247183,0.029321533,0.05375614,0.29443705
1764918382212,0.2873042,-0.4141969,10.216059,0.15027285,0.07452556,0.35185838
1764918382268,1.3910311,-0.50757074,10.254366,0.17837265,0.21135938,0.42638394
1764918382324,1.8219875,-0.1316811,9.198523,0.30298916,-0.034208454,0.33964106
1764918382376,2.3104045,-0.11492168,8.995016,0.30298916,-0.22357668,0.29077184
1764918382431,2.9400797,0.11252748,8.760384,0.27855456,-0.16615535,0.23823744
1764918382484,3.5458126,-0.009576807,9.672575,0.1563815,0.41172317,0.02321288
1764918382536,1.99437,0.62967503,9.018958,0.2125811,-0.0061086523,-0.118507855
1764918382588,1.271321,0.7254431,8.288726,0.19914207,-0.15515977,-0.17470746
1764918382644,0.8810662,0.04070143,8.1163435,0.039095376,-0.007330383,-0.172264
1764918382699,-0.009576807,0.059855044,9.227253,-0.030543262,0.23090707,-0.14172074
1764918382751,-0.5722142,-0.04070143,9.832987,-0.028099801,0.039095376,-0.12217305
1764918382806,-0.7038953,0.20350714,9.361329,0.0012217305,-0.16737708,-0.009773844
1764918382860,0.038307227,0.14604631,9.514558,-0.0012217305,-0.25045475,0.02687807
1764918382914,0.35194764,0.2801216,9.751583,0.018325957,-0.47891834,0.019547688
1764918382966,0.46208093,0.50278234,9.610326,0.018325957,-0.12095132,0.087964594
1764918383018,1.1779473,0.35194764,10.115502,0.028099801,-0.07819075,0.12705997
1764918383071,1.8914193,0.4213795,9.662998,0.030543262,0.13805555,0.13439035
1764918383123,2.2601264,0.40462008,9.969456,0.02321288,0.45081854,0.105068825
1764918383176,1.6807296,0.49799395,9.782708,0.04886922,0.30787608,0.039095376
1764918383233,0.92176765,0.60573304,9.581595,0.065973446,0.28955013,0.010995574
1764918383285,0.8403648,0.48602295,9.500193,0.04153884,0.3213151,0.032986723
1764918383338,0.90740246,0.34237084,9.995792,0.043982297,0.46914452,0.030543262
1764918383392,0.08619126,0.7038953,9.842564,0.080634214,0.267559,-0.014660766
1764918383447,0.91458505,0.34237084,9.033323,0.08674286,-0.002443461,-0.017104227
1764918383499,0.40940848,0.2777274,8.949526,0.05009095,0.2406809,0.0061086523
1764918383551,0.85473,-0.32321724,8.669404,0.042760566,-0.13927728,-0.002443461
1764918383604,1.0462662,-0.19153613,7.848193,-0.032986723,-0.1441642,0.043982297
1764918383656,1.1492168,-0.30645782,7.615956,-0.09285152,-0.1001819,0.021991149
1764918383708,1.1468226,0.20111294,7.4004774,-0.17592919,0.1282817,-0.002443461
1764918383769,1.1180922,0.49799395,8.628703,-0.27488935,-0.12217305,-0.13927728
1764918383822,1.1731589,0.25378537,9.057265,-0.28099802,0.13561209,-0.18936823
1764918383874,-0.12928689,0.89782566,9.083601,-0.267559,0.2125811,-0.24801129
1764918383931,-0.1388637,-0.19393034,9.569624,-0.31642818,0.52534413,-0.25167647
1764918383984,-1.2761095,-0.107739076,10.110714,-0.31031954,0.6084218,-0.25167647
1764918384037,-0.7469909,-0.5650316,9.957485,-0.27488935,0.19914207,-0.27855456
1764918384090,-1.769315,-0.055066638,9.682152,-0.24678956,0.09162979,-0.25900686
1764918384142,-1.1755531,-0.5434838,10.007763,-0.26389378,0.17348573,-0.19792034
1764918384202,-1.3790601,-0.8643068,10.745177,-0.25900686,0.47891834,-0.16249016
1764918384255,-1.6400281,-1.0534488,10.936713,-0.12461651,0.2968805,-0.16249016
1764918384308,-2.1499932,-1.2497733,10.673351,-0.056199603,0.18448131,-0.1563815
1764918384370,-2.1499932,-0.89303726,10.086772,-0.019547688,0.26511553,-0.087964594
1764918384423,-1.8459295,-0.9744401,9.904813,0.008552114,0.07452556,-0.06963864
1764918384476,-1.7166426,-0.9768343,9.631873,0.02076942,0.07086037,-0.04642576
1764918384531,-1.6711528,-0.82121116,9.248801,0.013439035,0.08552113,-0.008552114
1764918384583,-1.4101849,-0.8714894,9.179369,0.002443461,0.058643065,-0.002443461
1764918384636,-1.460463,-0.7230489,9.054871,-0.009773844,0.08552113,0.0036651916
1764918384688,-1.4341269,-0.7517793,9.390059,-0.02321288,-0.009773844,0.004886922
1764918384742,-1.541866,-0.8475474,9.382876,-0.032986723,0.042760566,0.018325957
1764918384801,-1.5035586,-0.9576807,9.665392,-0.021991149,0.007330383,0.014660766
1764918384854,-1.412579,-0.8690952,9.543288,-0.017104227,0.02443461,0.013439035
1764918384907,-1.3479356,-0.9528923,9.481039,-0.008552114,-0.05375614,0.0012217305
1764918384965,-1.2234371,-1.0271125,9.581595,-0.013439035,0.05131268,0.0012217305
1764918385018,-1.4580688,-1.163582,9.742006,-0.002443461,0.017104227,0.002443461
1764918385071,-1.316811,-1.2114661,9.758766,0.017104227,-0.02687807,0.004886922
1764918385123,-1.3359646,-1.0606314,9.497798,0.05131268,-0.007330383,0.015882496
1764918385175,-1.2186487,-0.90021986,9.339781,0.058643065,-0.1563815,-0.0012217305
1764918385233,-0.92176765,-0.8523358,9.208099,0.04153884,-0.04520403,-0.0061086523
1764918385288,-1.2880806,-0.81642276,9.572019,0.010995574,0.043982297,-0.021991149
1764918385342,-1.2138603,-0.9672575,9.698911,0.02565634,0.021991149,-0.030543262
1764918385405,-1.448492,-0.6943185,9.552865,0.04153884,-0.02565634,-0.037873644
1764918385457,-1.6927006,-0.80924016,9.76116,0.04886922,-0.09285152,-0.035430185
1764918385509,-1.4556746,-0.91219085,9.703699,0.058643065,-0.08552113,-0.036651913
1764918385562,-2.4971523,-0.7398083,10.18254,0.0720821,-0.02687807,0.010995574
1764918385618,-3.0071173,-0.3878607,10.024523,0.105068825,-0.18692477,0.037873644
1764918385671,-3.2273839,-0.48841715,9.835381,0.119729586,-0.1001819,0.09773844
1764918385724,-4.0701427,-0.25378537,10.086772,0.09162979,0.21502456,0.26267207
1764918385776,-4.1036615,-0.4285621,10.46745,0.112399206,0.18448131,0.36285394
1764918385829,-3.1292217,-0.62488663,10.25676,0.16493362,0.059864793,0.43249258
1764918385881,-1.7764976,-0.18674773,9.636662,0.24923302,0.12461651,0.5021312
1764918385935,-1.4221559,-0.016759412,8.90643,0.25900686,-0.105068825,0.45937067
1764918385987,-1.2425907,0.30406362,8.92319,0.22357668,0.12461651,0.4605924
1764918386039,-0.7757214,0.50278234,8.456321,0.2003638,0.14294247,0.45081854
1764918386091,-1.4269443,0.2825158,8.274361,0.118507855,-0.040317107,0.36285394
1764918386144,-4.187459,-0.6368576,9.160215,0.087964594,-0.015882496,0.4373795
1764918386202,0.5602432,-0.40940848,8.652645,0.07696902,-0.23823744,0.50946164
1764918386255,0.38067806,-0.079008654,8.559271,0.042760566,-0.14660765,0.44959682
1764918386307,0.37588966,0.088585466,9.23683,0.008552114,-0.1881465,0.41172317
1764918386360,3.0502129,1.2880806,8.7292595,0.04886922,-0.6414085,0.31398472
1764918386413,2.5474305,-0.6440403,10.970232,0.064751714,0.07452556,0.28955013
1764918386465,1.1899183,0.32561144,9.514558,0.12461651,-0.10629055,0.119729586
1764918386517,0.14844051,0.5746084,9.471462,0.12339478,-0.39706242,0.013439035
1764918386568,0.6536171,0.35434186,8.717288,0.12217305,-0.38362336,-0.017104227
1764918386620,-0.50038815,0.8571242,8.238448,0.07574729,-0.119729586,0.007330383
1764918386672,-0.038307227,0.78290397,8.614338,0.028099801,-0.23090707,0.02687807
1764918386724,-0.17717093,0.7254431,9.636662,-0.08674286,0.23945917,0.043982297
1764918386776,0.40701428,0.59376204,10.354922,-0.073303826,0.06963864,0.029321533
1764918386828,0.16998832,0.50757074,10.141838,-0.0036651916,-0.13561209,0.002443461
1764918386887,-0.4333505,1.0654198,9.232041,0.0012217305,-0.06841691,0.010995574
1764918386940,-0.038307227,0.81881696,9.892841,-0.009773844,-0.18570304,0.02321288
1764918386992,0.3854665,0.8619126,9.888053,0.0061086523,-0.22602014,0.018325957
1764918387044,0.14604631,0.81163436,9.435549,0.018325957,-0.16493362,0.032986723
1764918387096,0.25139117,0.7613561,9.260772,0.013439035,-0.1001819,0.05131268
1764918387149,0.32800564,0.7206547,9.548077,0.007330383,-0.1282817,0.052534413
1764918387202,0.8595184,0.7517793,9.323022,-0.0036651916,-0.05375614,0.080634214
1764918387256,0.9983821,0.830788,9.643845,-0.010995574,-0.095294975,0.06841691
1764918387309,1.1683705,0.6895301,9.591172,0.002443461,0.12339478,0.08552113
1764918387361,1.1803415,0.9672575,9.78989,0,0.17592919,0.04153884
1764918387414,0.7182605,0.8690952,9.832987,0.012217305,0.19058995,0.02687807
1764918387469,0.6488287,0.8762778,9.78989,0.02565634,0.1685988,0.015882496
1764918387523,0.20350714,0.8475474,9.270349,0.036651913,0.10140363,0.010995574
1764918387576,0.1340753,0.9648633,9.193734,0.02443461,0.062308256,0.013439035
1764918387629,0.016759412,0.8714894,9.435549,0.015882496,0.111177474,0.02443461
1764918387681,0.23223756,0.9935937,9.425972,-0.0036651916,0.013439035,0.02443461
1764918387734,0.06464344,1.0845734,9.524135,0.0012217305,0.028099801,0.02687807
1764918387787,0.4237737,0.9528923,9.215282,0.0036651916,-0.05009095,0.02321288
1764918387844,0.3854665,1.1013328,9.64145,-0.008552114,0.047647487,0.02443461
1764918387896,0.5410896,1.163582,9.495404,0.002443461,-0.007330383,0.018325957
1764918387950,0.59376204,1.2569559,9.797073,-0.0061086523,0.06841691,0.014660766
1764918388007,1.2258313,2.1523874,10.005369,0.015882496,-0.118507855,-0.035430185
1764918388060,1.3934253,2.3319526,10.496181,0.03176499,-0.09040806,-0.08307768
1764918388112,1.3120226,2.2816741,10.601525,0.061086524,-0.11362094,-0.14049901
1764918388165,1.5658079,2.054225,11.274296,0.119729586,0.010995574,-0.2125811
1764918388227,0.866701,1.9129672,11.408371,0.17715092,0.16493362,-0.28099802
1764918388279,0.08619126,0.9888053,10.740389,0.35796702,-0.089186326,-0.39584067
1764918388333,-0.6967127,0.81881696,10.888829,0.376293,0.44348818,-0.39461896
1764918388388,-0.5410896,0.4333505,12.8688345,0.46181414,-0.453262,-0.50946164
1764918388444,-1.6663644,1.1300632,11.942278,0.7244862,0.13072516,-0.3652974
1764918388498,-1.4700398,1.055843,13.117831,0.8014552,0.05009095,-0.30298916
1764918388551,1.8938135,0.89543146,5.1930237,0.87109387,-0.1160644,-0.30298916
1764918388606,-0.16280572,2.954445,8.820239,0.88697636,0.32742378,-0.23823744
1764918388658,1.6136919,3.4237084,11.659762,0.79290307,0.593761,-0.23579398
1764918388711,-0.49799395,2.9257145,12.605472,0.99082345,0.3371976,-0.3042109
1764918388764,2.0685902,3.98874,10.43872,1.0848967,0.17470746,-0.16737708
1764918388816,-2.4396915,3.9360676,14.834474,1.1508701,0.4129449,-0.2687807
1764918388870,-1.5777789,4.2185836,15.713146,1.3304645,0.40317106,-0.12217305
1764918388923,-2.4636335,2.7820623,21.394587,2.1331415,0.95905846,0.02321288
1764918388975,-0.51235914,0.46208093,20.90617,2.6010642,0.7012733,0.12095132
1764918389028,0.6607997,-2.6982653,21.35149,3.1227431,0.54367006,0.14905111
1764918389081,2.7102363,-9.437943,14.700398,4.0683627,0.8918633,0.18203785
1764918389133,4.6830587,-13.230358,10.896012,4.4238863,0.87964594,0.13927728
1764918389185,3.679888,-16.481684,5.7005944,4.6999974,1.8069394,0.2773328
1764918389244,2.5474305,-20.81519,-7.2568254,4.849048,1.1618657,0.6072
1764918389296,1.7980455,-17.822437,-8.9998045,4.721988,1.1459832,0.75502944
1764918389348,2.1404164,-15.239094,-14.571112,4.4617596,0.61208695,0.8063421
1764918389402,3.572149,-10.350134,-24.392126,3.4855971,0.40683624,0.6780604
1764918389455,4.9775453,-7.6973586,-28.960264,2.783102,-0.042760566,0.5363397
1764918389509,5.595249,-6.0118403,-32.625786,1.9511036,0.0842994,0.36896262
1764918389562,5.389348,-4.0198646,-44.97508,-0.07696902,-0.13805555,-0.07086037
1764918389615,2.8419175,-5.494693,-47.170563,-1.4978416,-0.19914207,-0.19547687
1764918389669,3.502717,-13.046005,-46.30865,-3.3487632,-0.9126327,-0.24556783
1764918389724,1.5131354,-40.732555,-38.395813,-6.1257567,-1.5173893,0.13927728
1764918389777,3.052607,-55.035515,-28.749575,-7.193549,-1.59558,0.42149702
1764918389830,4.8578353,-66.7288,-18.38268,-7.9400263,-1.6713274,0.72692966
1764918389883,9.991004,-78.44363,2.6647465,-8.502023,-1.7983873,1.2095132
1764918389936,10.828975,-72.73345,30.351295,-8.378628,-1.070236,1.3414601
1764918389989,17.29332,-52.789753,56.608505,-7.283957,-1.028697,1.4672983
1764918390045,17.417818,-8.236053,75.49158,-3.186273,0.059864793,0.7733554
1764918390098,12.169727,-1.508347,75.19709,-1.0763446,0.13194689,0.30176744
1764918390150,12.955026,1.151611,69.60423,0.8246681,0.43371433,0.06963864
1764918390203,11.815386,-12.62702,55.399433,3.8069122,0.75625116,-0.29077184
1764918390257,14.841657,-27.839777,47.77869,5.0469685,0.9370673,-0.47891834
1764918390311,12.413936,-43.02859,36.458904,6.2564816,1.4746287,-0.60231316
1764918390363,7.589619,-58.73695,8.228871,7.657807,1.7055358,-0.36041048
1764918390415,3.4979286,-58.39458,-2.0350714,7.732332,1.7776178,-0.065973446
1764918390467,1.1013328,-55.030727,-7.8625584,7.4916515,1.3720033,0.31642818
1764918390522,3.763685,-45.58081,-17.51598,6.6596527,1.6297885,0.9089675
1764918390575,4.8722005,-39.47081,-25.48867,6.1489697,0.31520647,0.9578367
1764918390630,7.893683,-30.66733,-38.927326,5.3511796,0.2003638,0.68539083
1764918390682,7.9032598,-10.084377,-72.94654,1.9889772,-0.087964594,0.4813618
1764918390748,10.3214035,-9.871294,-73.24103,-0.516792,-0.75747293,0.19425514
1764918390800,8.798691,-34.58185,-56.381054,-5.116607,-1.5015068,-0.17104226
1764918390854,6.2249246,-54.221485,-45.07803,-7.216762,-1.428203,0.017104227
1764918390906,4.7907977,-70.21475,-30.736761,-8.144055,-1.4074335,0.16615535
1764918390963,9.136273,-78.44363,0.21547815,-9.118997,-1.3402383,1.2534955
1764918391019,9.895236,-78.44363,8.51857,-8.842885,-1.754405,1.3903292
1764918391072,9.746795,-78.1252,34.23469,-8.460484,-1.0433578,1.5760323
1764918391127,17.164032,-29.582756,63.929974,-5.4953437,-0.906524,1.3439035
1764918391180,18.401834,-12.995727,69.2044,-3.8276815,-0.23090707,0.9627236
1764918391232,16.242264,-3.2680852,70.133354,-1.9645426,-0.27122417,0.52778757
1764918391284,16.115372,-2.3750482,64.083206,1.3109168,0.118507855,-0.2565634
1764918391337,16.998833,-9.854534,58.85187,2.792876,0.5876524,-0.59986967
1764918391392,14.195222,-22.029049,48.267105,4.225966,1.5760323,-0.81245077
1764918391445,9.572019,-45.72686,26.982653,6.355442,2.4862216,-0.70249504
1764918391498,7.1275387,-52.272606,16.941372,6.999294,2.388483,-0.408058
1764918391551,5.267244,-57.958836,6.5098343,7.4488907,2.5082128,0.13683382
1764918391604,3.145981,-53.412247,-8.7053175,7.393913,0.79045963,0.61819565
1764918391656,3.1172507,-48.221615,-14.00608,7.007846,1.1398746,0.89919364
1764918391711,4.225766,-42.76044,-21.806389,6.5252624,1.0433578,1.0848967
1764918391764,6.325481,-28.390444,-44.64707,4.9419,0.7965683,1.1142182
1764918391816,7.5441294,-18.404228,-54.329224,3.563788,-0.28710666,0.8136725
1764918391869,8.767567,-9.80665,-63.5469,1.8264871,-0.047647487,0.55833083
1764918391922,10.259154,-14.106636,-66.6857,-2.7464502,-0.7635816,-0.056199603
1764918391976,10.25676,-31.390379,-58.988342,-4.9284606,-1.0983357,-0.24190263
1764918392031,7.807492,-50.747498,-45.815445,-6.736622,-1.2229522,-0.3213151
1764918392083,2.6408045,-78.44363,-15.603012,-8.863655,-1.4318681,0.08307768
1764918392148,6.385336,-78.44363,-2.7389667,-9.027367,-2.4019222,0.71837753
1764918392200,11.798626,-75.71184,19.227835,-8.185595,-3.2876768,1.4184291
1764918392252,15.052346,-61.217342,48.003742,-7.4000216,-0.79290307,2.1160371
1764918392304,26.357767,-36.602554,63.532536,-5.7812285,-1.6859881,1.7849482
1764918392363,25.483883,-2.861071,69.63057,-1.8362609,0.030543262,0.61453044
1764918392415,22.380997,3.2944214,64.05687,-0.14782938,0.63163465,0.030543262
1764918392468,21.674707,-1.9560628,56.591747,1.2437216,0.35063666,-0.6084218
1764918392518,14.008474,-16.129736,44.9248,3.6786306,2.0427334,-1.1178834
1764918392569,10.240001,-28.967447,38.347927,4.8417177,2.3188446,-1.1606439
1764918392622,8.14268,-39.18111,28.902803,5.9192843,2.8002062,-0.84665924
1764918392676,7.4627266,-45.93755,17.448942,6.6620965,2.8185322,-0.42271876
1764918392730,5.547365,-47.83136,-2.078167,7.142236,1.3561208,0.35796702
1764918392782,5.374983,-45.305477,-5.485116,6.922325,0.6206391,0.3408628
1764918392850,4.915296,-40.129215,-17.776947,6.3835416,1.1753048,0.71593404
1764918392901,3.7828386,-32.81732,-27.696125,5.837428,0.7257079,0.68783426
1764918392951,5.841852,-23.211786,-41.50109,4.923574,-0.047647487,0.49357912
1764918393002,6.7851677,-8.171411,-57.468025,1.8802432,1.2168436,0.22602014
1764918393053,8.9758625,-4.331111,-61.509438,0.080634214,0.54244834,0.002443461
1764918393104,6.3111157,-10.022128,-57.03467,-1.8973475,-0.73426,-0.34697145
1764918393156,5.650316,-33.547554,-46.7827,-5.3426275,-1.2302825,-0.37873647
1764918393208,2.5761611,-50.06515,-38.22343,-6.785491,-1.1386528,-0.312763
1764918393264,0.60333884,-64.32023,-23.106441,-8.078082,-1.7690657,-0.010995574
1764918393318,8.8777,-76.79642,3.1052797,-8.455597,-1.1252137,1.097114
1764918393371,5.616797,-67.00652,16.25184,-7.891157,-1.6933185,0.86620694
1764918393423,4.9344497,-56.223038,33.159695,-7.316944,-0.69027776,1.0958922
1764918393477,15.468937,-21.526268,61.51183,-4.747645,-1.6969837,1.4721853
1764918393530,17.85835,-9.440337,66.57317,-2.9663615,-1.1838568,1.1972959
1764918393583,23.75048,1.496376,66.683304,-1.2840388,-0.4092797,0.81489426
1764918393639,18.930952,-2.0231004,59.759274,1.7397442,0.07086037,-0.37873647
1764918393694,17.702728,-10.6398325,53.93418,3.072652,0.9981538,-0.72204274
1764918393751,12.08593,-23.800758,43.344627,4.43366,1.577254,-0.9089675
1764918393803,8.264784,-41.03422,22.807165,6.2015038,1.4782939,-0.8417723
1764918393855,7.627927,-46.979027,14.121001,6.7231827,1.5125023,-0.7012733
1764918393908,5.183447,-50.570328,6.751649,7.1031413,1.5784758,-0.535118
1764918393961,2.3702598,-51.211975,-7.3430166,7.211875,1.921782,0.095294975
1764918394016,1.9273324,-47.18493,-14.468161,6.940651,1.926669,0.54733527
1764918394067,3.8115692,-42.765232,-20.245369,6.4812803,1.8020525,0.9773844
1764918394120,4.158728,-26.010607,-48.978184,4.754975,0.8552113,1.1985176
1764918394172,8.008605,-15.19121,-58.562172,3.1520646,-0.1001819,1.1374311
1764918394224,10.951078,-7.2783732,-66.7695,1.2363913,-0.44226643,0.8552113
1764918394279,10.7356,-15.516821,-58.15516,-3.2449162,-1.5125023,0.2761111
1764918394334,7.8290396,-30.652964,-47.7332,-5.1019464,-1.0555751,0.18448131
1764918394387,4.9655743,-45.935154,-36.717476,-6.5264845,-1.3854424,0.1966986
1764918394439,3.6415808,-65.93392,-15.248671,-8.053647,-0.5925393,0.4202753
1764918394491,5.566519,-71.4334,-7.0724716,-8.250346,-1.8020525,0.55955255
1764918394544,5.0278234,-72.23306,2.5498247,-8.29555,-0.27855456,0.90285885
1764918394600,10.065224,-54.707508,40.418915,-7.4415603,-0.6426302,1.1777482
1764918394652,9.296685,-36.140476,57.39859,-6.09277,-0.7415904,0.97249746
1764918394704,14.662091,-18.612524,60.726532,-4.2320743,-0.9627236,0.8723156
1764918394756,8.293514,-2.918532,44.989445,-1.2620476,0.18203785,0.34330627
1764918394808,7.3669586,-0.30645782,34.596214,-0.36896262,1.0152581,0.2443461
1764918394861,3.145981,1.3335704,23.96596,0.2406809,0.88208944,0.10995574
1764918394916,1.9512744,0.8355764,13.608643,0.61086524,0.2919936,0.042760566
1764918394975,1.4149733,0.46686932,10.077195,0.6585127,0.18203785,0.05131268
1764918395028,1.3814543,0.24420857,7.7069354,0.64873886,-0.25534168,-0.007330383
1764918395085,1.0366893,0.9504981,5.2241483,0.43004912,-0.49480084,-0.035430185
1764918395139,0.89303726,0.7469909,4.9583917,0.29810223,-0.19303341,-0.002443461
1764918395191,1.0151415,1.2234371,4.498705,0.1563815,-0.13072516,0.04520403
1764918395250,1.4317327,1.2018893,5.521029,-0.111177474,-0.16126843,0.056199603
1764918395302,2.480393,0.9959879,6.0597243,-0.24312437,-0.056199603,0.08552113
1764918395355,1.8028339,0.20829555,7.7572136,-0.32742378,-0.37995818,0.14294247
1764918395407,3.5817258,-0.38067806,8.544906,-0.35063666,-0.5216789,0.172264
1764918395459,3.3614593,-0.18195933,9.416395,-0.31398472,-0.38240165,0.14294247
1764918395520,3.787627,0.7110779,9.440337,-0.25900686,-0.6609562,0.036651913
1764918395572,4.0701427,0.25617957,9.382876,-0.31520647,-0.46181414,0.0036651916
1764918395625,4.865018,0.39025488,10.16578,-0.39584067,0.073303826,-0.0036651916
1764918395678,3.763685,-0.39264908,11.5616,-0.35796702,0.453262,-0.1600467
1764918395730,3.2249897,-0.5650316,11.417948,-0.25045475,0.15271631,-0.24923302
1764918395784,2.89459,-0.6440403,10.766725,-0.15882497,0.31398472,-0.26633725
1764918395841,0.91937345,-0.36870706,9.23683,0.02076942,0.029321533,-0.29565877
1764918395893,-0.22505496,-0.059855044,9.411607,-0.02443461,0.48258355,-0.204029
1764918395946,0.05267244,-0.21308395,8.937555,-0.019547688,-0.2443461,-0.1966986
1764918396002,-0.36391866,-0.60094464,9.176975,-0.12950343,0.63163465,0.010995574
1764918396054,1.1803415,-0.3184288,9.100361,-0.15271631,0.32375857,0.035430185
1764918396106,0.29448682,-0.36152446,9.916783,-0.1966986,1.2571607,0.118507855
1764918396159,0.46208093,-0.36870706,9.622296,-0.13439035,0.6462954,0.10995574
1764918396211,-1.757344,-0.33039984,10.493786,-0.13072516,0.7415904,0.13927728
1764918396268,-0.58418524,-0.6943185,9.950302,-0.065973446,-0.052534413,0.118507855
1764918396321,0.22026655,-0.7398083,10.323798,-0.04886922,0.037873644,0.26145032
1764918396374,0.93613285,-0.5722142,10.984597,-0.032986723,0.36651915,0.2919936
1764918396427,0.9552865,-0.5530606,11.226412,0.034208454,0.2443461,0.26267207
1764918396479,2.1404164,-1.1013328,10.953473,0.14905111,0.08674286,0.12095132
1764918396536,0.91697925,-0.91219085,10.682928,0.204029,0.004886922,0.010995574
1764918396589,0.89303726,-0.5410896,10.081984,0.26145032,-0.408058,-0.087964594
1764918396641,0.48602295,0.18435353,9.0429,0.26145032,-0.267559,-0.059864793
1764918396695,1.0390835,-0.050278235,9.287108,0.21991149,-0.13194689,-0.018325957
1764918396750,1.0941502,-0.36870706,9.018958,0.20647246,0.04886922,-0.012217305
1764918396802,0.33997664,0.076614454,9.284714,0.18936823,-0.13194689,-0.0842994
1764918396855,0.34715924,0.3854665,8.870518,0.17592919,-0.034208454,-0.058643065
1764918396907,0.56982,0.2873042,8.875306,0.14172074,0.0061086523,-0.042760566
1764918396960,0.15322891,0.36391866,8.611943,0.09896017,0.06963864,-0.059864793
1764918397013,0.02633622,0.58897364,7.9966335,0.05375614,0.10751228,-0.02565634
1764918397073,0.4309563,0.47644615,7.9391727,-0.07696902,0.47525316,0.037873644
1764918397125,0.2753332,0.29448682,8.9758625,-0.16371189,0.19792034,0.018325957
1764918397178,0.45968673,0.22026655,9.203311,-0.1685988,0.014660766,-0.014660766
1764918397236,-0.06703765,-0.107739076,9.354146,-0.16371189,0.14660765,-0.017104227
1764918397288,-0.30166942,-0.05267244,9.854534,-0.15271631,0.111177474,-0.017104227
1764918397343,-0.19632454,-0.093373865,9.753978,-0.13561209,0.111177474,0.0036651916
1764918397399,0,-0.16519992,9.799467,-0.111177474,0.07696902,0.028099801
1764918397454,-0.076614454,-0.33758244,10.208876,-0.10262536,0.042760566,0.015882496
1764918397507,-0.260968,-0.007182605,10.199299,-0.06352998,-0.07819075,0.008552114
1764918397559,1.0414777,-0.038307227,9.212888,-0.056199603,-0.23945917,-0.019547688
1764918397612,1.5849615,-0.17477672,8.726865,-0.052534413,-0.21013765,-0.062308256
1764918397666,-0.5363012,-0.2633622,9.409213,-0.10262536,0.10140363,-0.05131268
1764918397719,-0.47165772,-0.34476504,10.115502,-0.10751228,0.48747048,0.02321288
1764918397772,-0.10295067,-0.47165772,10.000581,-0.07086037,0.07086037,-0.007330383
1764918397824,-0.4165911,-0.6655881,10.172963,-0.04520403,-0.042760566,-0.032986723
1764918397876,-0.40940848,-0.5243302,9.595961,0.0061086523,-0.040317107,-0.008552114
1764918397929,0.04309563,-0.5291186,9.68694,0.017104227,-0.040317107,-0.0036651916
1764918397982,-0.34955344,-0.49081135,9.476251,0.018325957,-0.07941248,-0.013439035
1764918398036,0.0023942017,-0.33997664,9.057265,-0.015882496,0.04153884,-0.009773844
1764918398090,-0.6943185,-0.36391866,9.244013,-0.039095376,0.089186326,0
1764918398143,0.076614454,-0.59136784,9.909601,-0.043982297,0.12339478,0.007330383
1764918398195,-0.11252748,-0.5650316,9.959879,0.004886922,0.065973446,0.0036651916
1764918398247,-0.770933,-0.6823475,10.278308,0.032986723,0.008552114,-0.009773844
1764918398300,-0.260968,-0.50038815,9.837775,0.058643065,-0.06963864,-0.013439035
1764918398356,-0.10295067,-0.33039984,9.354146,0.08552113,-0.19914207,-0.012217305
1764918398408,-0.14604631,-0.39983168,9.093178,0.042760566,-0.009773844,0.0061086523
1764918398460,-0.39264908,-0.272939,9.181764,0.019547688,-0.05131268,0.0012217305
1764918398513,-0.06703765,-0.37828386,9.0429,-0.0012217305,-0.1441642,-0.004886922
1764918398571,0.055066638,-0.34715924,9.442732,-0.0036651916,-0.21380283,0.0012217305
1764918398623,-0.48602295,-0.62249243,9.093178,0,-0.2919936,0.010995574
1764918398674,0.090979666,-0.38307226,9.3182335,-0.030543262,-0.05375614,0.02321288
1764918398725,0.2825158,-0.50757074,10.374076,-0.029321533,-0.004886922,0.014660766
1764918398779,0.047884032,-0.2657564,10.259154,0.017104227,0.036651913,0.007330383
1764918398830,0.1412579,-0.24420857,9.078813,0.05375614,-0.22357668,-0.0061086523
1764918398883,0.49559975,-0.36152446,9.409213,0.039095376,-0.20525073,-0.013439035
1764918398936,0.21547815,-0.45489833,9.509769,0.02076942,-0.064751714,-0.010995574
1764918398987,0.5506664,-0.2825158,9.52174,0.013439035,-0.07941248,-0.009773844
1764918399039,0.8451532,-0.011971008,9.390059,0.014660766,-0.15515977,-0.028099801
1764918399090,0.5315128,-0.30885202,9.291897,0.013439035,0.02443461,-0.029321533
1764918399142,-0.10534488,-0.2825158,9.387665,0.004886922,-0.15882497,-0.052534413
1764918399193,0.25857377,-0.29688102,9.737218,-0.04520403,0.06719518,-0.030543262
1764918399244,0.51475334,-0.61530983,9.878476,-0.039095376,-0.05375614,-0.029321533
1764918399296,0.5410896,-0.35434186,9.524135,-0.029321533,0.014660766,-0.030543262
1764918399347,0.5602432,-0.35434186,9.868899,-0.037873644,-0.04520403,-0.02321288
1764918399398,0.7062895,-0.5386954,9.485827,0.007330383,-0.10262536,-0.02687807
1764918399450,0.5793968,-0.36631286,9.674969,-0.004886922,0.035430185,-0.02443461
