t,ax,ay,az,gx,gy,gz
1764920582330,-2.0685902,-0.7326257,9.409213,-0.16493362,0.16982053,0.065973446
1764920582381,-2.2002714,-0.79726917,9.315839,-0.0036651916,0.065973446,0.008552114
1764920582433,-2.3942018,-0.80445176,9.246407,-0.0061086523,0.14538592,0.015882496
1764920582484,-2.5330653,-0.7110779,9.284714,-0.002443461,0.07452556,0.008552114
1764920582535,-2.3415294,-0.79008657,9.217676,0.0012217305,-0.036651913,-0.0012217305
1764920582587,-2.5067291,-0.80205756,9.28232,0.0012217305,-0.032986723,-0.0012217305
1764920582639,-2.267309,-0.7661445,9.263166,0.0036651916,-0.12095132,-0.009773844
1764920582691,-1.9488802,-0.7493851,9.421184,0.004886922,-0.1685988,-0.013439035
1764920582742,-2.2026656,-0.79487497,9.423578,-0.007330383,0.21624629,0.02321288
1764920582796,-2.870648,-0.81642276,9.227253,-0.008552114,0.24678956,0.02443461
1764920582849,-2.5019407,-0.6967127,9.181764,0.0012217305,-0.05009095,-0.002443461
1764920582901,-2.1499932,-0.770933,9.208099,0.002443461,-0.06352998,-0.002443461
1764920582953,-2.4492683,-0.6967127,9.222465,0.0012217305,-0.018325957,0
1764920583005,-2.3630772,-0.7541735,9.26556,0,-0.0012217305,0.0012217305
1764920583059,-2.492364,-0.81402856,9.222465,-0.0012217305,0.015882496,0.002443461
1764920583116,-2.420538,-0.78769237,9.279925,-0.0012217305,0.009773844,0.0036651916
1764920583169,-2.4037786,-0.7565677,9.258378,0,-0.004886922,0.0012217305
1764920583224,-2.4277205,-0.78290397,9.217676,0,0.0012217305,0.002443461
1764920583276,-2.4301147,-0.7685388,9.28232,0.0012217305,-0.0012217305,0.002443461
1764920583330,-2.348712,-0.7613561,9.258378,-0.0012217305,0.002443461,0.002443461
1764920583384,-2.3535004,-0.7613561,9.224859,0,0.002443461,0.002443461
1764920583436,-2.3463178,-0.78050977,9.267955,0,-0.002443461,0.002443461
1764920583489,-2.4492683,-0.80684596,9.234436,-0.0012217305,0.002443461,0.002443461
1764920583547,-2.3870192,-0.80205756,9.272743,0,-0.002443461,0.0012217305
1764920583599,-2.396596,-0.82599956,9.260772,0,0,0.002443461
1764920583652,-2.4133554,-0.7685388,9.222465,0,0.0012217305,0.002443461
1764920583707,-2.4420857,-0.7733272,9.229648,0,0,0.0012217305
1764920583760,-2.384625,-0.7565677,9.241618,0,0.0036651916,0.0012217305
1764920583813,-2.4420857,-0.7613561,9.248801,0,0,0.002443461
1764920583865,-2.3415294,-0.7781156,9.222465,0,0.0012217305,0.002443461
1764920583917,-2.4181437,-0.8331822,9.246407,0,0.002443461,0.0036651916
1764920583969,-2.3822308,-0.7422025,9.258378,0,0,0.0012217305
1764920584024,-2.384625,-0.79487497,9.205706,-0.0012217305,0,0.0012217305
1764920584077,-2.3918076,-0.7613561,9.241618,0,0,0.002443461
1764920584132,-2.3582888,-0.7398083,9.174581,-0.0012217305,0.002443461,0.0012217305
1764920584184,-2.3630772,-0.79487497,9.224859,0,0.0061086523,-0.0012217305
1764920584237,-2.3343468,-0.7326257,9.255983,0,0,0
1764920584289,-2.4061728,-0.80205756,9.246407,0,0.002443461,0
1764920584342,-2.3750482,-0.79008657,9.176975,0,0.002443461,-0.0012217305
1764920584394,-2.360683,-0.82360536,9.263166,0,0.002443461,0
1764920584448,-2.3798366,-0.78769237,9.239224,0,-0.0012217305,-0.0012217305
1764920584501,-2.3558946,-0.79487497,9.234436,0,0,0
1764920584553,-2.4109612,-0.79726917,9.217676,-0.0012217305,0.0012217305,0
1764920584606,-2.4157495,-0.82360536,9.229648,-0.0012217305,0.0012217305,0
1764920584658,-2.3798366,-0.7589619,9.308656,0.0012217305,-0.002443461,0
1764920584711,-2.4492683,-0.80205756,9.203311,0,-0.0012217305,0
1764920584764,-2.3918076,-0.8331822,9.248801,0,-0.0012217305,0
1764920584819,-2.3870192,-0.80445176,9.26556,-0.0012217305,0.0012217305,0
1764920584871,-2.4540567,-0.7565677,9.241618,0,0.002443461,0
1764920584923,-2.4229321,-0.7493851,9.251195,-0.002443461,0.0036651916,0
1764920584987,-2.3511062,-0.7493851,9.26556,-0.0012217305,0,0
1764920585039,-2.420538,-0.7733272,9.232041,0,0.0012217305,-0.0012217305
1764920585091,-2.4372973,-0.80205756,9.220071,0,0.002443461,0
1764920585145,-2.3678656,-0.80445176,9.198523,0,0,0
1764920585197,-2.4396915,-0.78769237,9.210494,0,0,0
1764920585250,-2.3535004,-0.79966336,9.263166,0.0012217305,-0.0012217305,0
1764920585305,-2.456451,-0.7374141,9.23683,0.0012217305,0,0
1764920585357,-2.3654714,-0.79008657,9.210494,0.0012217305,-0.0012217305,0.0012217305
1764920585409,-2.384625,-0.7445967,9.258378,-0.0012217305,0,0
1764920585466,-2.4492683,-0.81402856,9.220071,0,0.0012217305,0
1764920585520,-2.3750482,-0.7398083,9.200917,0.0061086523,-0.02321288,0
1764920585572,-2.4157495,-0.79248077,9.220071,0.0012217305,-0.0012217305,-0.0012217305
1764920585626,-2.4061728,-0.7278373,9.248801,0,0,0
1764920585680,-2.4133554,-0.7781156,9.251195,0,-0.0012217305,0.0012217305
1764920585733,-2.4109612,-0.7326257,9.246407,0,0.0012217305,-0.0012217305
1764920585788,-2.4372973,-0.7493851,9.19134,0.0012217305,-0.0036651916,0
1764920585841,-2.3463178,-0.7445967,9.23683,0,0,0
1764920585893,-2.360683,-0.7062895,9.229648,0.0012217305,0.0012217305,0
1764920585945,-2.4157495,-0.7589619,9.258378,-0.0012217305,0.0012217305,-0.0012217305
1764920586005,-2.420538,-0.7493851,9.155427,0,0.0012217305,0.0012217305
1764920586058,-2.4109612,-0.770933,9.232041,0,0.0012217305,-0.0012217305
1764920586111,-2.372654,-0.7278373,9.244013,0,-0.0012217305,0
1764920586165,-2.3942018,-0.79248077,9.205706,0.0012217305,0,0
1764920586217,-2.4229321,-0.7541735,9.215282,0,0.0036651916,0
1764920586269,-2.3798366,-0.7350199,9.160215,0.0012217305,-0.002443461,0
1764920586321,-2.3918076,-0.7398083,9.208099,0,-0.0012217305,-0.0012217305
1764920586374,-2.372654,-0.79248077,9.220071,0,0.0012217305,-0.0012217305
1764920586426,-2.4109612,-0.7565677,9.232041,0,0.002443461,-0.0012217305
1764920586478,-2.4516625,-0.7134721,9.19134,-0.0012217305,0.002443461,0
1764920586532,-2.3582888,-0.78290397,9.224859,0.002443461,-0.0012217305,0
1764920586588,-2.4492683,-0.7469909,9.205706,0,0.0036651916,0.0012217305
1764920586638,-2.372654,-0.7158663,9.241618,-0.0012217305,0.007330383,0
1764920586690,-2.348712,-0.7517793,9.23683,0,0.0012217305,0
1764920586743,-2.3989902,-0.81642276,9.270349,0,0.0012217305,0
1764920586795,-2.4301147,-0.7326257,9.23683,0,0.0012217305,-0.0012217305
1764920586851,-2.4468741,-0.79248077,9.239224,0,0.0012217305,0
1764920586908,-2.3535004,-0.8331822,9.186552,0,0.0012217305,-0.0012217305
1764920586960,-2.3702598,-0.7230489,9.246407,0.0012217305,0,-0.0012217305
1764920587012,-2.3750482,-0.7398083,9.208099,0.0012217305,0,-0.0012217305
1764920587064,-2.4372973,-0.82360536,9.255983,0,0.0012217305,0
1764920587123,-2.4061728,-0.79966336,9.186552,0,0,0
1764920587176,-2.384625,-0.81163436,9.169792,0,0.0012217305,0
1764920587228,-2.4277205,-0.7613561,9.251195,0,0.0012217305,-0.0012217305
1764920587280,-2.3750482,-0.78050977,9.210494,0,0.0012217305,0
1764920587333,-2.4492683,-0.7230489,9.19134,-0.0012217305,0.002443461,0
1764920587393,-2.396596,-0.85473,9.267955,0,0.002443461,0
1764920587447,-2.4253263,-0.770933,9.251195,0,0.0036651916,0
1764920587500,-2.4420857,-0.7781156,9.267955,-0.0012217305,0.002443461,0
1764920587553,-2.408567,-0.7661445,9.229648,-0.0012217305,0,-0.0012217305
1764920587607,-2.4109612,-0.81881696,9.255983,-0.0012217305,0.002443461,0
1764920587665,-2.3989902,-0.7733272,9.23683,0.0012217305,0.0012217305,0
1764920587717,-2.3942018,-0.7781156,9.28232,-0.0012217305,0.0036651916,0
1764920587769,-2.420538,-0.7733272,9.260772,-0.0012217305,0.0012217305,0
1764920587825,-2.3415294,-0.78529817,9.217676,-0.0012217305,0.0036651916,-0.0012217305
1764920587877,-2.372654,-0.8475474,9.227253,-0.002443461,0.014660766,0
1764920587929,-2.3870192,-0.80445176,9.234436,0,0.002443461,0
1764920587984,-2.3511062,-0.7326257,9.169792,0,0.0012217305,-0.0012217305
1764920588037,-2.4157495,-0.7517793,9.198523,0,0,-0.0012217305
1764920588090,-2.303222,-0.7589619,9.212888,-0.0012217305,0.002443461,0
1764920588145,-2.396596,-0.78290397,9.260772,-0.0012217305,0.0012217305,0.0012217305
1764920588198,-2.4301147,-0.80445176,9.291897,0,0.002443461,0
1764920588250,-2.3918076,-0.81642276,9.205706,0,0.0012217305,0
1764920588314,-2.4109612,-0.7661445,9.212888,-0.0012217305,0.002443461,0
1764920588365,-2.4301147,-0.7781156,9.224859,-0.002443461,0.002443461,0
1764920588418,-2.3702598,-0.7469909,9.239224,-0.0012217305,0.004886922,-0.0012217305
1764920588471,-2.3080103,-0.7757214,9.277532,0,0.0012217305,-0.0012217305
1764920588526,-2.4037786,-0.7517793,9.244013,0,0.0012217305,0
1764920588581,-2.4301147,-0.80924016,9.224859,-0.0012217305,0.0012217305,0
1764920588635,-2.396596,-0.79008657,9.215282,-0.0012217305,0.002443461,-0.0012217305
1764920588688,-2.4468741,-0.82121116,9.25359,-0.0036651916,0.004886922,0
1764920588745,-2.3558946,-0.80445176,9.234436,-0.0012217305,0.0012217305,0
1764920588798,-2.4612393,-0.7637503,9.215282,0,0.0012217305,-0.0012217305
1764920588850,-2.3894134,-0.7302315,9.203311,0,0.0012217305,0
1764920588911,-2.4157495,-0.7637503,9.244013,0,0,0
1764920588963,-2.3894134,-0.82599956,9.196129,0,0,0
1764920589016,-2.4013844,-0.78769237,9.208099,-0.0012217305,0.002443461,0
1764920589068,-2.4420857,-0.7422025,9.205706,0,0,0
1764920589121,-2.4947581,-0.80445176,9.222465,-0.0012217305,0.0012217305,0
1764920589174,-2.4013844,-0.6703765,9.244013,0,0.0012217305,0
1764920589226,-2.4636335,-0.7541735,9.222465,0,0,-0.0012217305
1764920589280,-2.4229321,-0.7493851,9.217676,-0.0012217305,0,0
1764920589332,-2.3678656,-0.79008657,9.239224,-0.0012217305,0.002443461,0
1764920589384,-2.4301147,-0.6751649,9.200917,0,0.002443461,0
1764920589436,-2.396596,-0.7565677,9.234436,-0.0012217305,0.002443461,0
1764920589489,-2.4277205,-0.80445176,9.215282,0,-0.0012217305,-0.0012217305
1764920589544,-2.4109612,-0.7374141,9.212888,0,0,-0.0012217305
1764920589597,-2.4540567,-0.80684596,9.251195,0,0.0012217305,0
1764920589650,-2.3295584,-0.7254431,9.212888,0,0,0
1764920589705,-2.3942018,-0.81881696,9.234436,-0.0012217305,0.0036651916,0
1764920589760,-2.336741,-0.80684596,9.181764,0,0.002443461,0
1764920589814,-2.4420857,-0.7781156,9.210494,0,0.0012217305,0
1764920589867,-2.3822308,-0.7110779,9.246407,-0.0012217305,0.0012217305,0
1764920589919,-2.432509,-0.78290397,9.222465,0,0,-0.0012217305
1764920589971,-2.3654714,-0.7781156,9.227253,0,0.0012217305,0
1764920590027,-2.4253263,-0.7565677,9.232041,0,0.002443461,0
1764920590081,-2.408567,-0.79487497,9.291897,0,0.0012217305,0
1764920590134,-2.432509,-0.7493851,9.275137,-0.0012217305,0.002443461,-0.0012217305
1764920590187,-2.420538,-0.82360536,9.198523,0.0012217305,-0.0012217305,-0.0012217305
1764920590240,-2.3750482,-0.7589619,9.176975,-0.002443461,0.002443461,0
1764920590292,-2.3702598,-0.79248077,9.188946,0.0012217305,0,0.0012217305
1764920590348,-2.3343468,-0.7589619,9.203311,0,0,0
1764920590401,-2.4133554,-0.7541735,9.23683,0,0.0012217305,0.0012217305
1764920590454,-2.3894134,-0.8690952,9.203311,-0.0012217305,0.0012217305,-0.0012217305
1764920590506,-2.3942018,-0.7254431,9.260772,-0.0012217305,0,0.0012217305
1764920590563,-2.3558946,-0.7757214,9.255983,0,-0.002443461,-0.0012217305
1764920590615,-2.384625,-0.8283938,9.232041,0,0,0
1764920590667,-2.336741,-0.78529817,9.239224,-0.0012217305,0.002443461,0
1764920590720,-2.4253263,-0.7278373,9.28232,0,0,0
1764920590773,-2.4229321,-0.79726917,9.224859,0,-0.0012217305,0
1764920590825,-2.4588451,-0.7733272,9.258378,0,0,-0.0012217305
1764920590880,-2.3582888,-0.7541735,9.174581,-0.0036651916,0.0036651916,0
1764920590933,-2.3630772,-0.79966336,9.289502,0,0.0012217305,-0.0012217305
1764920590984,-2.3894134,-0.7374141,9.208099,0.0012217305,-0.0012217305,0
1764920591036,-2.4420857,-0.7230489,9.16261,-0.0012217305,0.0012217305,0
1764920591088,-2.4420857,-0.7302315,9.260772,-0.0012217305,0.0012217305,-0.0012217305
1764920591144,-2.3942018,-0.78769237,9.258378,-0.0012217305,0,0
1764920591198,-2.4157495,-0.7541735,9.26556,0,0.002443461,0
1764920591251,-2.4157495,-0.7278373,9.19134,-0.0012217305,0,-0.0012217305
1764920591307,-2.4037786,-0.7613561,9.270349,0,-0.0012217305,0
1764920591359,-2.4133554,-0.8331822,9.229648,0,0.0012217305,0
1764920591413,-2.4061728,-0.81402856,9.272743,-0.0012217305,0,-0.0012217305
1764920591468,-2.4229321,-0.80684596,9.179369,-0.0012217305,0.0012217305,-0.0012217305
1764920591520,-2.432509,-0.7781156,9.224859,0.0012217305,0,0
1764920591573,-2.4037786,-0.80445176,9.239224,0.0061086523,-0.0036651916,-0.0012217305
1764920591626,-2.3894134,-0.7781156,9.200917,0,0.0012217305,-0.0012217305
1764920591680,-2.4588451,-0.7469909,9.210494,0,0.0012217305,0
1764920591734,-2.3918076,-0.7326257,9.205706,0.0012217305,0.0012217305,-0.0012217305
1764920591787,-2.396596,-0.7350199,9.224859,0.0036651916,-0.0036651916,0
1764920591840,-2.4636335,-0.78529817,9.244013,0.0012217305,-0.0012217305,-0.0012217305
1764920591892,-2.3870192,-0.7637503,9.248801,0.0012217305,-0.002443461,-0.0012217305
1764920591944,-2.336741,-0.79726917,9.23683,0.0012217305,-0.0012217305,-0.0012217305
1764920591996,-2.4468741,-0.7661445,9.234436,-0.0012217305,0.004886922,0
1764920592048,-2.468422,-0.7374141,9.208099,0.0012217305,0,-0.0012217305
1764920592105,-2.4229321,-0.7733272,9.188946,0.0012217305,0,-0.0012217305
1764920592158,-2.3942018,-0.7637503,9.184157,0,0.0012217305,0
1764920592211,-2.384625,-0.78769237,9.244013,0.0012217305,-0.0012217305,0
1764920592264,-2.384625,-0.78290397,9.239224,0.0012217305,0.002443461,0
1764920592318,-2.3822308,-0.7422025,9.193734,0,0.0061086523,0
1764920592371,-2.3918076,-0.7565677,9.239224,0.0012217305,0,-0.0012217305
1764920592423,-2.3582888,-0.7637503,9.26556,0,0.0012217305,0
1764920592476,-2.384625,-0.7757214,9.248801,0.0012217305,0,0
1764920592528,-2.4253263,-0.79487497,9.246407,0.0012217305,0,-0.0012217305
1764920592583,-2.4133554,-0.7589619,9.234436,0,0.0012217305,0
1764920592636,-2.420538,-0.7206547,9.301474,0.0012217305,0,-0.0012217305
1764920592689,-2.4253263,-0.81163436,9.239224,0,0.002443461,-0.0012217305
1764920592743,-2.4013844,-0.7182605,9.181764,0,0.0012217305,-0.0012217305
1764920592795,-2.3918076,-0.7517793,9.224859,0,0.002443461,-0.0012217305
1764920592851,-2.3630772,-0.78529817,9.246407,0,0,0.0012217305
1764920592912,-2.3798366,-0.7422025,9.227253,0.0012217305,0.002443461,0
1764920592965,-2.4229321,-0.7110779,9.148245,0.0012217305,0,0
1764920593018,-2.432509,-0.78050977,9.284714,-0.0036651916,0.004886922,-0.0012217305
1764920593071,-2.3894134,-0.7086837,9.224859,0.0012217305,0.0012217305,0
1764920593124,-2.4133554,-0.82121116,9.303867,0.0012217305,0,0
1764920593177,-2.4109612,-0.7685388,9.239224,0,0,0
1764920593230,-2.4013844,-0.7445967,9.248801,0,-0.0012217305,0
1764920593284,-2.4253263,-0.7685388,9.193734,0.0012217305,0,0
1764920593336,-2.420538,-0.7781156,9.248801,0,0.0012217305,0.0012217305
1764920593388,-2.4253263,-0.7158663,9.217676,0,0.002443461,0
1764920593440,-2.3870192,-0.7374141,9.277532,0.0012217305,-0.0012217305,-0.0012217305
1764920593492,-2.4013844,-0.7565677,9.248801,0.0012217305,0.0012217305,0
1764920593544,-2.348712,-0.770933,9.275137,0.0012217305,0.0012217305,0
1764920593598,-2.4516625,-0.830788,9.25359,0.0012217305,0.0012217305,0.0012217305
1764920593653,-2.4612393,-0.7517793,9.19134,0,0,0
1764920593704,-2.4612393,-0.7493851,9.165004,0.0012217305,-0.0012217305,-0.0012217305
1764920593755,-2.3558946,-0.78290397,9.179369,0.002443461,-0.0012217305,0
1764920593808,-2.420538,-0.7517793,9.239224,0.002443461,-0.002443461,0
1764920593861,-2.3630772,-0.770933,9.188946,0.0012217305,0,-0.0012217305
1764920593913,-2.3989902,-0.78529817,9.19134,0.0012217305,0.0012217305,0
1764920593967,-2.4109612,-0.770933,9.23683,0,0.0012217305,0
1764920594026,-2.3558946,-0.7733272,9.294291,0.0012217305,0.0012217305,0
1764920594079,-2.4420857,-0.7541735,9.260772,0.0012217305,0.0012217305,-0.0012217305
1764920594132,-2.4468741,-0.7517793,9.267955,-0.0012217305,0.0012217305,-0.0012217305
1764920594185,-2.4133554,-0.7182605,9.203311,-0.0012217305,0,0
1764920594238,-2.3918076,-0.80445176,9.251195,0.0012217305,0.004886922,0
1764920594291,-2.3558946,-0.7517793,9.263166,-0.0012217305,0.0012217305,-0.0012217305
1764920594344,-2.4301147,-0.79966336,9.25359,-0.0012217305,0.0012217305,0
1764920594396,-2.3702598,-0.7781156,9.239224,-0.0012217305,0,0
1764920594449,-2.3942018,-0.78769237,9.23683,-0.0012217305,0.0012217305,-0.0012217305
1764920594508,-2.4588451,-0.78769237,9.176975,-0.0012217305,0.002443461,0
1764920594560,-2.4157495,-0.79726917,9.258378,0.0012217305,-0.0036651916,0
1764920594612,-2.4277205,-0.7517793,9.210494,0,0,0
1764920594664,-2.4133554,-0.7278373,9.234436,0,0.0012217305,0
1764920594716,-2.3798366,-0.80205756,9.200917,-0.002443461,0.002443461,-0.0012217305
1764920594770,-2.3822308,-0.7733272,9.208099,0,0.002443461,-0.0012217305
1764920594824,-2.3319526,-0.81642276,9.224859,-0.0012217305,0.002443461,0
1764920594876,-2.3511062,-0.7469909,9.169792,-0.0012217305,0,-0.0012217305
1764920594929,-2.4229321,-0.7757214,9.210494,0,0,0
1764920594982,-2.4660277,-0.80205756,9.284714,0,0,0
1764920595035,-2.3535004,-0.78529817,9.229648,0,0,0
1764920595088,-2.3774424,-0.80205756,9.19134,-0.0012217305,0,0
1764920595144,-2.3630772,-0.7589619,9.186552,0.0012217305,-0.002443461,0
1764920595196,-2.372654,-0.79726917,9.227253,0,0.0012217305,-0.0012217305
1764920595249,-2.4396915,-0.81881696,9.16261,0,-0.0012217305,-0.0012217305
1764920595304,-2.3774424,-0.79248077,9.229648,0,0.002443461,0
1764920595356,-2.4133554,-0.78769237,9.28232,0,-0.0012217305,0
1764920595409,-2.3870192,-0.78769237,9.210494,0,0.0012217305,0
1764920595463,-2.372654,-0.78769237,9.270349,0.0012217305,-0.0012217305,0
1764920595515,-2.3630772,-0.7565677,9.212888,0,0.0012217305,-0.0012217305
1764920595571,-2.4013844,-0.7541735,9.198523,0,0.0012217305,0
1764920595627,-2.3511062,-0.78050977,9.203311,-0.0012217305,-0.0012217305,-0.0012217305
1764920595680,-2.3654714,-0.7350199,9.248801,0,0,0
1764920595733,-2.3942018,-0.7445967,9.267955,0,0.0012217305,-0.0012217305
1764920595786,-2.4301147,-0.78290397,9.227253,-0.0036651916,0.004886922,-0.0012217305
1764920595839,-2.348712,-0.7469909,9.232041,0,-0.002443461,-0.0012217305
1764920595892,-2.4061728,-0.7757214,9.215282,0,-0.0012217305,-0.0012217305
1764920595944,-2.3558946,-0.6991069,9.220071,0.0012217305,-0.002443461,0
1764920595996,-2.384625,-0.80445176,9.277532,-0.0012217305,0,0
1764920596048,-2.456451,-0.7326257,9.196129,0,-0.0012217305,-0.0012217305
1764920596104,-2.4947581,-0.7757214,9.169792,0,0.0012217305,0
1764920596158,-2.396596,-0.78050977,9.205706,0,-0.002443461,0
1764920596212,-2.384625,-0.80445176,9.275137,0,-0.0012217305,0.0012217305
1764920596264,-2.4396915,-0.7589619,9.19134,0.0012217305,-0.002443461,0
1764920596316,-2.360683,-0.6799533,9.239224,0,0.0012217305,-0.0012217305
1764920596370,-2.3391352,-0.7757214,9.229648,-0.0012217305,0,-0.0012217305
1764920596425,-2.4037786,-0.7685388,9.222465,0.0012217305,-0.002443461,0.0012217305
1764920596477,-2.3822308,-0.78290397,9.193734,0,-0.002443461,0
1764920596529,-2.3511062,-0.7781156,9.205706,-0.0012217305,0.0012217305,0
1764920596582,-2.4133554,-0.79248077,9.272743,0,0.0012217305,0
1764920596635,-2.4468741,-0.81881696,9.188946,-0.0012217305,0.0012217305,-0.0012217305
1764920596688,-2.3989902,-0.7206547,9.155427,0.002443461,-0.0012217305,0
1764920596748,-2.4181437,-0.79248077,9.220071,0,0,0
1764920596802,-2.480393,-0.80924016,9.227253,-0.0036651916,0.0061086523,-0.0012217305
1764920596854,-2.4588451,-0.82599956,9.224859,0,0,-0.0012217305
1764920596909,-2.420538,-0.7733272,9.203311,-0.0012217305,0.0012217305,-0.0012217305
1764920596961,-2.396596,-0.7733272,9.255983,0,0.0012217305,0.0012217305
1764920597014,-2.3870192,-0.80445176,9.212888,0,-0.0012217305,0.0012217305
1764920597067,-2.408567,-0.7469909,9.234436,0,0.0012217305,0
1764920597120,-2.3511062,-0.78050977,9.267955,0,0,0
1764920597176,-2.4133554,-0.79008657,9.186552,0,0,0
1764920597228,-2.3535004,-0.79248077,9.210494,0,-0.0012217305,0
1764920597281,-2.4420857,-0.770933,9.217676,0,0.0012217305,-0.0012217305
1764920597333,-2.3774424,-0.7326257,9.229648,0,0.0012217305,-0.0012217305
1764920597386,-2.4229321,-0.80205756,9.239224,0,0,0
1764920597440,-2.3942018,-0.80205756,9.143456,0.0012217305,-0.0012217305,-0.0012217305
1764920597493,-2.3702598,-0.7493851,9.196129,-0.0012217305,0,0
1764920597547,-2.432509,-0.78529817,9.224859,0,0,0
1764920597601,-2.3463178,-0.7757214,9.193734,-0.0012217305,0.002443461,0.0012217305
1764920597653,-2.3199813,-0.8523358,9.205706,0,0.0012217305,-0.0012217305
1764920597705,-2.4588451,-0.7206547,9.229648,0,0,0
1764920597761,-2.4109612,-0.78529817,9.188946,0,0,0.0012217305
1764920597817,-2.3894134,-0.81163436,9.258378,0,0.0012217305,0.0012217305
1764920597876,-2.4133554,-0.842759,9.215282,-0.0036651916,0.004886922,-0.0012217305
1764920597930,-2.3463178,-0.7541735,9.19134,0,0,0
1764920597984,-2.3870192,-0.7733272,9.208099,-0.0012217305,0.002443461,0
1764920598036,-2.3870192,-0.7661445,9.208099,0,0.002443461,-0.0012217305
1764920598088,-2.4229321,-0.7733272,9.188946,0,0,0
1764920598146,-2.3535004,-0.79726917,9.212888,0,0.0012217305,0
1764920598198,-2.4349031,-0.80205756,9.255983,0,0.004886922,0
1764920598252,-2.3319526,-0.78769237,9.234436,0,0,0.0012217305
1764920598305,-2.4708161,-0.78290397,9.315839,-0.0036651916,0.004886922,-0.0012217305
1764920598363,-2.4157495,-0.7733272,9.234436,-0.0012217305,0.0036651916,0
1764920598417,-2.3750482,-0.8283938,9.23683,0,0,0
1764920598470,-2.4037786,-0.7637503,9.198523,-0.0012217305,0,-0.0012217305
1764920598523,-2.3894134,-0.78050977,9.227253,0,0,0
1764920598583,-2.3750482,-0.79487497,9.26556,0,0,-0.0012217305
1764920598635,-2.3870192,-0.7469909,9.198523,0,-0.0012217305,0
1764920598688,-2.4133554,-0.7541735,9.294291,0,0,0
1764920598743,-2.3558946,-0.7110779,9.234436,-0.0012217305,-0.0012217305,-0.0012217305
1764920598796,-2.3511062,-0.78529817,9.181764,-0.0012217305,0,0
1764920598848,-2.4516625,-0.80205756,9.198523,0.0012217305,-0.007330383,-0.0012217305
1764920598901,-2.3989902,-0.7469909,9.212888,-0.0012217305,0.0012217305,0
1764920598954,-2.4492683,-0.78529817,9.255983,0,0,0
1764920599008,-2.4061728,-0.80684596,9.217676,-0.0012217305,0.0012217305,0
1764920599064,-2.456451,-0.7230489,9.215282,0,0.0012217305,0
1764920599116,-2.4253263,-0.78050977,9.193734,0,0.0012217305,-0.0012217305
1764920599169,-2.4061728,-0.80684596,9.215282,0.0012217305,-0.002443461,0
1764920599222,-2.456451,-0.79008657,9.229648,0,0.0012217305,-0.0012217305
1764920599274,-2.4157495,-0.78290397,9.220071,0,-0.0012217305,-0.0012217305
1764920599329,-2.396596,-0.6991069,9.222465,0,-0.002443461,-0.0012217305
1764920599384,-2.3750482,-0.81163436,9.26556,0,0,-0.0012217305
1764920599437,-2.4492683,-0.7733272,9.227253,-0.0012217305,0.0012217305,-0.0012217305
1764920599489,-2.3630772,-0.7493851,9.258378,-0.0012217305,0,0
1764920599543,-2.3702598,-0.7781156,9.26556,0,0.0012217305,0
1764920599598,-2.3702598,-0.7278373,9.23683,-0.0012217305,0.0012217305,-0.0012217305
1764920599651,-2.4301147,-0.78050977,9.270349,0,0,0
1764920599703,-2.3654714,-0.8331822,9.246407,-0.0012217305,-0.002443461,0
1764920599756,-2.3822308,-0.7445967,9.267955,-0.0012217305,0.002443461,-0.0012217305
1764920599809,-2.4061728,-0.7661445,9.232041,-0.0012217305,0.002443461,0
1764920599862,-2.3942018,-0.78769237,9.244013,0.0012217305,-0.0036651916,0
1764920599916,-2.4301147,-0.7757214,9.234436,0,0,0.0012217305
1764920599967,-2.3822308,-0.7733272,9.208099,-0.0012217305,0.0012217305,0
1764920600020,-2.396596,-0.7350199,9.188946,0,0.0012217305,0
1764920600072,-2.4349031,-0.82121116,9.227253,-0.0012217305,0.0012217305,0
1764920600127,-2.372654,-0.79248077,9.215282,0.0012217305,-0.002443461,0.0012217305
1764920600186,-2.4037786,-0.79966336,9.196129,-0.0012217305,0.0012217305,-0.0012217305
1764920600239,-2.3894134,-0.78290397,9.217676,0,0.0012217305,0
1764920600291,-2.396596,-0.8403648,9.229648,0,0.0012217305,0
1764920600346,-2.3558946,-0.7589619,9.246407,0,0.002443461,0
1764920600401,-2.4181437,-0.7469909,9.239224,-0.002443461,0.0036651916,0
1764920600453,-2.420538,-0.770933,9.248801,0,0,0
1764920600506,-2.4253263,-0.78769237,9.196129,0,0.0012217305,-0.002443461
1764920600558,-2.4013844,-0.7781156,9.244013,-0.0012217305,0,0
1764920600614,-2.4133554,-0.7398083,9.234436,-0.0012217305,0.0012217305,-0.0012217305
1764920600668,-2.4061728,-0.7589619,9.234436,0,0.002443461,0
1764920600720,-2.408567,-0.7469909,9.215282,0.002443461,-0.002443461,0
1764920600773,-2.3822308,-0.8738836,9.275137,0,0,0
1764920600825,-2.4133554,-0.7733272,9.222465,-0.0012217305,0,-0.0012217305
1764920600881,-2.3870192,-0.7781156,9.234436,0,0.0012217305,-0.0012217305
1764920600934,-2.4420857,-0.7445967,9.188946,0,-0.0012217305,-0.0012217305
1764920600986,-2.3630772,-0.80205756,9.244013,-0.0012217305,0,0
1764920601039,-2.3989902,-0.7326257,9.248801,0,0.0012217305,-0.0012217305
1764920601092,-2.3989902,-0.7469909,9.205706,-0.0012217305,0.0012217305,0
1764920601145,-2.3415294,-0.7685388,9.210494,0,0,-0.0012217305
1764920601202,-2.3774424,-0.7422025,9.270349,-0.0036651916,0.0061086523,0
1764920601256,-2.4372973,-0.7661445,9.160215,0,0,-0.0012217305
1764920601308,-2.432509,-0.8451532,9.184157,-0.0012217305,0.0012217305,0
1764920601360,-2.4420857,-0.79966336,9.241618,0,0,0
1764920601424,-2.3511062,-0.78290397,9.215282,0,0.0012217305,0
1764920601476,-2.408567,-0.78769237,9.239224,0,0.002443461,0
1764920601531,-2.4229321,-0.7374141,9.176975,-0.0012217305,0.002443461,0
1764920601584,-2.4420857,-0.7565677,9.119514,0,0.0012217305,-0.0012217305
1764920601641,-2.3247697,-0.7733272,9.246407,0,0.0012217305,0
1764920601694,-2.396596,-0.7326257,9.244013,-0.0012217305,0.0036651916,0
1764920601751,-2.3918076,-0.7517793,9.172187,0.0012217305,0.002443461,0
1764920601802,-2.4013844,-0.7374141,9.258378,0,0,-0.0012217305
1764920601853,-2.4396915,-0.7541735,9.181764,0,0,0
1764920601905,-2.4133554,-0.7733272,9.160215,-0.0012217305,0.0012217305,0
1764920601957,-2.4301147,-0.7182605,9.251195,-0.0012217305,0.002443461,0
1764920602009,-2.4157495,-0.79008657,9.208099,0,-0.0012217305,-0.0012217305
1764920602062,-2.3870192,-0.7302315,9.224859,0,0,0
1764920602117,-2.4013844,-0.80924016,9.203311,0,-0.0036651916,0
1764920602171,-2.4253263,-0.7350199,9.217676,-0.0012217305,0.002443461,0
1764920602223,-2.372654,-0.78050977,9.16261,-0.0012217305,0,-0.0012217305
1764920602276,-2.384625,-0.79966336,9.234436,-0.0012217305,0.0012217305,-0.0012217305
1764920602328,-2.3894134,-0.7158663,9.193734,0.0036651916,-0.004886922,-0.0012217305
1764920602383,-2.4181437,-0.81163436,9.217676,0,-0.0012217305,0
1764920602435,-2.396596,-0.7637503,9.26556,0.0036651916,-0.019547688,-0.0012217305
1764920602487,-2.3774424,-0.7733272,9.267955,0,0,0
1764920602540,-2.4229321,-0.7613561,9.220071,-0.0012217305,0.002443461,-0.0012217305
1764920602592,-2.432509,-0.78050977,9.239224,-0.0012217305,0,-0.0012217305
1764920602644,-2.3750482,-0.7278373,9.234436,0.0012217305,-0.0036651916,0
1764920602704,-2.3870192,-0.80445176,9.143456,0,0.0012217305,0
1764920602756,-2.3750482,-0.830788,9.160215,-0.002443461,0.0012217305,-0.0012217305
1764920602809,-2.3798366,-0.6919243,9.217676,0,0,-0.002443461
1764920602861,-1.4580688,-0.878672,9.114726,-0.007330383,0.19303341,0.018325957
1764920602915,-3.1028855,-0.6560113,8.9519205,-0.030543262,0.80878556,0.07574729
1764920602971,-5.3821654,-0.7637503,8.647857,-0.032986723,0.86009824,0.0842994
1764920603024,-1.553837,-0.5722142,9.196129,0.008552114,-0.59131753,-0.057421334
1764920603075,-4.9703627,-0.8619126,9.363723,-0.12461651,0.018325957,-0.02321288
1764920603127,-3.4404678,0.1340753,9.799467,-0.14782938,-1.9804251,-0.16371189
1764920603180,2.1906946,-0.7493851,8.597578,-0.22357668,-0.49235737,-0.07452556
1764920603234,-1.2306197,-1.0773908,10.180145,-0.2968805,0.86620694,-0.13072516
1764920603286,-2.3319526,-0.8475474,11.949461,-0.24923302,0.8454375,-0.19792034
1764920603343,-5.092467,-1.6280571,17.717093,0.14905111,0.5363397,-0.12095132
1764920603396,-5.8203044,-0.5482722,18.5814,0.5644395,0.49846604,0.040317107
1764920603452,-5.827487,0.05746084,16.543934,0.92485,1.0115929,0.24556783
1764920603507,-3.7421372,2.2242134,10.994174,1.0983357,0.1441642,0.56321776
1764920603560,-1.6112977,1.6160861,10.251971,1.0922271,-0.3494149,0.53878313
1764920603612,-1.4341269,1.3431472,10.970232,1.0861185,0.0012217305,0.49357912
1764920603664,-0.7685388,0.2657564,11.051635,1.1325442,-0.2687807,0.3933972
1764920603717,-0.61291564,-0.5746084,11.128249,1.2315043,-0.36041048,0.37507126
1764920603771,-0.21547815,0.7541735,8.714894,1.3072516,-0.28344148,0.37751472
1764920603823,-0.39504328,0.9696517,6.8689647,1.2131784,-0.344528,0.29932398
1764920603875,-1.103727,2.291251,6.751649,1.0995574,-0.26145032,0.26267207
1764920603928,-0.8858546,1.8794483,5.90889,1.0506883,-0.8393288,0.18325958
1764920603980,-0.9672575,3.4811692,6.5840545,0.87598073,-0.49846604,0.12583824
1764920604033,-0.8834604,4.819528,5.839458,0.8063421,-0.40317106,0.059864793
1764920604088,-1.4269443,3.5889084,6.4284315,0.7318166,-0.204029,0.013439035
1764920604142,-1.0007763,1.8579005,3.2321723,0.61208695,-0.15027285,0.05497787
1764920604194,-1.520318,2.0901382,3.0430303,0.47158796,-0.04520403,0.112399206
1764920604250,-1.5849615,2.5785553,2.731784,0.3494149,-0.07574729,0.16249016
1764920604306,-3.2010477,5.791574,5.619191,0.14782938,-0.31398472,0.25289822
1764920604357,-2.4875755,7.1466923,2.420538,0.004886922,-0.3481932,0.32620203
1764920604410,-3.679888,7.836222,3.3494883,-0.25289822,-0.44593164,0.41050145
1764920604462,8.690952,4.8602295,2.7485435,-0.18448131,-2.575408,0.39461896
1764920604514,9.021352,8.686164,3.7062242,-0.5131268,2.2382102,0.2932153
1764920604576,-0.8810662,6.739678,8.367735,-0.5338962,2.0280726,0.18325958
1764920604628,-3.9432502,8.896853,6.9767036,-0.24923302,-0.09162979,0.18692477
1764920604682,0.6679823,5.0637364,7.5106106,-0.30909783,0.3371976,0.2724459
1764920604740,3.4620156,7.309498,6.95755,-0.34697145,-0.08552113,0.18081611
1764920604792,1.6328455,6.5146227,10.113108,-0.453262,0.26389378,-0.04153884
1764920604844,1.0989386,4.8626237,10.429143,-0.35063666,0.081855945,-0.10995574
1764920604901,-0.30406362,4.4580035,12.050017,-0.07086037,0.36774087,-0.17837265
1764920604955,-0.30645782,5.645528,10.723629,0.10140363,0.035430185,-0.19425514
1764920605011,0.16998832,4.7070007,9.246407,0.18448131,0.35796702,-0.14782938
1764920605063,-2.3319526,5.556942,8.693346,0.2761111,0.26633725,-0.17104226
1764920605115,-1.3742718,5.9807158,9.794679,0.267559,0.2687807,-0.10140363
1764920605167,0.2633622,6.3230867,7.019799,0.40317106,-1.2522738,-0.19425514
1764920605218,3.3303347,6.7971387,3.4380736,0.032986723,-1.5039502,-0.38606682
1764920605270,-0.94810385,8.863335,4.144363,-0.111177474,0.93584555,-0.1685988
1764920605325,-3.13401,7.4723034,2.2481554,-0.06352998,-0.6401868,-0.15393804
1764920605380,-3.2824504,4.570531,8.341399,-0.6462954,0.06963864,0.112399206
1764920605432,5.2983685,1.5873557,7.513005,-0.49113566,-2.1587977,-0.047647487
1764920605485,1.9991584,-0.60333884,11.118672,-0.4361578,0.7122689,0.0720821
1764920605543,2.4732103,6.457162,7.098808,-0.13927728,0.548557,-0.18448131
1764920605595,-0.095768064,8.504205,9.141062,-0.32375857,1.3707817,-0.11728613
1764920605649,-9.109938,5.0062757,14.66688,-0.28099802,0.5326745,-0.25411993
1764920605702,-1.8842367,4.987122,6.172252,-0.2846632,1.7947221,0.15515977
1764920605755,-3.3782187,-0.62249243,10.065224,-0.24923302,1.7971655,0.24312437
1764920605807,1.6208745,2.1739352,11.178528,-0.09162979,0.6462954,0.25045475
1764920605861,0.095768064,5.4324436,8.674192,-0.18692477,0.09040806,0.17470746
1764920605914,-1.2282255,11.604695,5.5737014,-0.1881465,0.37751472,0.12095132
1764920605967,-3.1603463,3.8067808,9.433155,-0.29932398,1.4257594,0.02687807
1764920606020,-4.1156325,3.6942532,19.649214,0.08552113,1.2131784,0.062308256
1764920606073,-4.474763,2.60968,15.9262295,0.5375614,1.4807373,0.12339478
1764920606127,-5.674258,5.092467,11.293449,0.8454375,0.17348573,0.15149458
1764920606179,-3.0430303,8.209718,5.3845596,0.8246681,-0.06352998,0.16126843
1764920606231,-2.054225,7.2472486,4.8602295,0.6719518,-0.5009095,0.13316862
1764920606284,1.3934253,5.544971,2.8060043,0.54244834,-0.6035349,0.09407325
1764920606341,-3.241749,5.353435,3.857059,0.087964594,-2.3774874,-0.21380283
1764920606393,0.36391866,4.036624,4.6351743,-0.05375614,-0.13805555,0.014660766
1764920606446,-1.7717092,4.7907977,7.6829934,-0.13805555,0.22602014,-0.0061086523
1764920606500,-0.85473,4.534618,6.3949127,-0.13561209,-0.5522222,-0.013439035
1764920606552,0.94331545,5.1235914,4.1539397,-0.20891592,-0.7831292,-0.009773844
1764920606605,-0.8882488,5.3223104,4.232949,-0.3481932,-0.19792034,0.032986723
1764920606662,-1.1779473,4.5441947,2.0207062,-0.75136423,-0.13072516,0.13561209
1764920606714,-0.2801216,4.1132383,3.3518825,-0.95417154,-0.33841935,0.15760323
1764920606767,-0.06464344,3.3854012,4.9679685,-1.1154399,0.12095132,0.19425514
1764920606819,1.2569559,2.0207062,11.513716,-1.1166617,-0.26633725,0.17959438
1764920606872,1.1348516,1.460463,13.608643,-0.95294976,0.06719518,0.1600467
1764920606927,1.6567876,2.147599,12.876017,-0.72692966,-0.17104226,0.08307768
1764920606979,1.5801731,2.6599581,12.698846,-0.46303585,-0.0720821,0.0061086523
1764920607032,0.33279404,2.6264393,11.973403,-0.344528,0.08307768,-0.037873644
1764920607085,0.35434186,2.7246015,11.473015,-0.25289822,-0.119729586,-0.05375614
1764920607145,-0.01436521,2.681506,10.189722,-0.18325958,0.103847094,-0.042760566
1764920607198,0.48841715,1.8962077,9.351752,-0.1600467,0.06841691,-0.04886922
1764920607252,-0.08140286,2.2601264,9.569624,-0.16982053,0.59742624,-0.0061086523
1764920607304,-0.59136784,0.6799533,9.940725,-0.16249016,0.36651915,-0.017104227
1764920607356,-0.22505496,1.0726024,10.936713,-0.12095132,-0.2919936,-0.035430185
1764920607407,0.79008657,1.6519991,10.441113,-0.0842994,-0.52534413,-0.03176499
1764920607460,0.11731588,1.4413095,10.989386,0,1.2315043,-0.010995574
1764920607512,-0.28491,1.5346833,9.818622,0.062308256,0.3200934,-0.13439035
1764920607565,-1.1971009,1.8914193,8.659827,0.07696902,0.38240165,-0.13805555
1764920607618,-2.5594015,1.8219875,7.3885064,-0.08674286,-0.029321533,-0.04520403
1764920607671,-2.4133554,1.1085154,8.937555,-0.17715092,0.19547687,0.047647487
1764920607724,-2.3175871,0.8619126,10.160992,-0.14049901,-0.22113322,0.059864793
1764920607780,-2.60968,1.2665327,9.56723,-0.037873644,0.02321288,0.13072516
1764920607832,-2.2385786,1.4053963,10.187328,-0.036651913,0.012217305,0.18203785
1764920607884,-1.7812861,0.78290397,11.109096,0.030543262,-0.25778514,0.21502456
1764920607939,-1.5251064,0.9744401,9.8042555,0.07696902,0.08307768,0.3371976
1764920607996,-1.2162545,0.78050977,10.560823,0.058643065,-0.09896017,0.35185838
1764920608048,-1.1683705,0.82599956,10.491392,0.081855945,0.2968805,0.37507126
1764920608100,-1.8626889,1.3359646,9.825804,0.057421334,0.5326745,0.37995818
1764920608153,-1.9536686,2.1140802,9.131485,0.05497787,0.5412266,0.4129449
1764920608206,-0.93134445,2.4372973,9.038112,0.04153884,0.59864795,0.45204028
1764920608262,-0.20111294,2.8083985,8.947132,0.030543262,0.12339478,0.33475417
1764920608315,-0.62488663,2.6839,9.196129,0.05375614,0.112399206,0.30543262
1764920608367,-0.6368576,1.5921441,9.059659,0.10873401,0.030543262,0.28588495
1764920608419,-0.4165911,2.2218192,7.680599,0.30176744,-0.8772025,0.17715092
1764920608471,1.2449849,4.0773253,6.8330517,0.25778514,-1.4013249,0.1160644
1764920608524,3.1723173,2.932897,9.308656,0.03176499,-0.11362094,0.19303341
1764920608581,1.6663644,2.5258827,10.055647,0.07696902,0.66339964,-0.002443461
1764920608633,-0.12210429,2.825158,10.0748005,0.10629055,0.68294734,-0.11362094
1764920608686,-0.7398083,2.633622,9.184157,0.17715092,-0.04153884,-0.23090707
1764920608739,-1.769315,2.9352913,7.642292,0.12705997,0.030543262,-0.17470746
1764920608792,-1.9488802,2.5187001,7.5824366,0.05497787,0.16126843,-0.13439035
1764920608846,-2.2337902,2.6886885,7.7572136,-0.018325957,0.20525073,-0.1160644
1764920608902,-2.0590134,2.6312277,7.5201874,-0.052534413,-0.23457226,-0.12705997
1764920608955,-2.2050598,2.4181437,7.881712,-0.103847094,0.07086037,-0.07819075
1764920609007,-2.3439236,2.2936451,8.408437,-0.14538592,0.21991149,-0.047647487
1764920609065,-2.4660277,2.4516625,8.645462,-0.17104226,0.081855945,0.004886922
1764920609118,-2.3750482,2.492364,8.930372,-0.16982053,-0.015882496,0.015882496
1764920609171,-1.6519991,2.219425,8.7771435,-0.15149458,-0.6365216,-0.012217305
1764920609228,-0.7469909,2.2601264,8.1402855,-0.12950343,-0.93828905,-0.04642576
1764920609283,-0.05746084,2.3295584,9.006987,-0.20769419,-0.6218608,-0.042760566
1764920609337,0.29209262,1.6160861,9.0237465,-0.16737708,-0.04520403,-0.040317107
1764920609391,-0.40462008,1.2258313,9.16261,-0.23090707,0.88697636,0.05375614
1764920609444,-1.2210429,1.5634137,9.962274,-0.2125811,0.57910025,-0.02443461
1764920609499,-2.1523874,1.6831238,9.957485,-0.10140363,0.4166101,-0.061086524
1764920609551,-2.8754363,1.5370775,10.022128,-0.0720821,0.5534439,-0.028099801
1764920609607,-2.9376855,1.661576,9.97185,-0.02443461,0.089186326,-0.02076942
1764920609665,-2.789245,1.6903064,9.856929,0.036651913,0.037873644,0.035430185
1764920609717,-3.1794999,2.5905263,8.497022,0.052534413,-0.028099801,0.034208454
1764920609771,-1.6184803,1.6687586,8.865729,0.058643065,-0.012217305,0.05131268
1764920609824,-1.7741034,1.6663644,8.75799,0.0842994,-0.18448131,0.04642576
1764920609876,-2.135628,1.673547,8.880095,0.0720821,-0.14660765,0.04642576
1764920609929,-1.5346833,1.7477672,8.825027,0.09040806,-0.57910025,0.004886922
1764920609985,-1.8195933,2.2601264,9.471462,0.02076942,-0.3200934,-0.010995574
1764920610037,-1.7621324,1.8387469,9.617508,0.02565634,-0.7623598,-0.08674286
1764920610089,-0.22505496,2.291251,8.406042,0.030543262,-0.33475417,-0.043982297
1764920610141,-1.3239936,1.0319009,9.619903,-0.009773844,0.61819565,0.09773844
1764920610200,-1.8052281,1.3311762,9.797073,0.017104227,0.37140608,0.034208454
1764920610252,-2.0326772,1.8243817,9.595961,0.058643065,0.1881465,-0.008552114
1764920610304,-2.4971523,1.8387469,9.531317,0.07452556,0.12461651,0.008552114
1764920610357,-2.6408045,2.0087352,9.507375,0.09407325,0.1282817,0.042760566
1764920610409,-2.7988217,1.8722657,9.617508,0.13683382,-0.16493362,0.034208454
1764920610466,-1.685518,2.2625206,7.9152308,0.14172074,0.11362094,0.09162979
1764920610518,-1.2330139,1.8555063,7.9511437,0.028099801,0.2883284,0.06719518
1764920610571,-1.3263878,1.8842367,8.432379,-0.019547688,0.39828414,0.056199603
1764920610623,-1.9369092,2.1667526,8.863335,-0.0036651916,-0.06352998,-0.07819075
1764920610675,-2.2098482,2.4157495,8.628703,-0.013439035,0.096516706,-0.05497787
1764920610729,-1.8746599,2.0254946,8.7125,-0.018325957,0.03176499,-0.056199603
1764920610783,-2.2840683,2.2385786,8.597578,-0.052534413,0.087964594,-0.06719518
1764920610838,-2.3511062,2.1021092,8.844181,-0.07819075,0.095294975,-0.06963864
1764920610890,-2.4037786,1.8986019,8.963891,-0.080634214,0.0720821,-0.07452556
1764920610942,-2.5187001,1.9536686,8.959103,-0.089186326,0.080634214,-0.06963864
1764920610998,-2.9017725,1.757344,9.3661175,-0.080634214,0.18936823,-0.056199603
1764920611053,-2.873042,1.6950948,9.210494,-0.056199603,0.04153884,-0.061086524
1764920611106,-3.3063924,1.7405846,9.174581,-0.030543262,-0.030543262,-0.02687807
1764920611159,-3.2992098,1.7932571,9.289502,-0.015882496,-0.13805555,-0.004886922
1764920611212,-2.9017725,2.2337902,8.66701,0.028099801,-0.689056,-0.029321533
1764920611265,-2.1284454,1.6759412,10.390836,0.012217305,-1.1325442,-0.018325957
1764920611317,-0.39504328,0.91219085,9.334992,0.065973446,-0.2724459,0.07452556
1764920611370,-1.5825673,1.1851299,9.299079,0.02687807,0.47036624,0.119729586
1764920611422,-2.6791117,1.6711528,9.679757,-0.02076942,0.893085,0.13194689
1764920611474,-3.004723,1.5179238,9.689334,0.008552114,0.52778757,0.12217305
1764920611528,-3.028665,1.6400281,9.629479,0.02687807,0.5693264,0.15149458
1764920611582,-4.3406878,2.0470424,9.378088,0.11728613,-0.15149458,0.16982053
1764920611634,-4.7046065,2.7964275,9.198523,0.13194689,-0.17104226,0.21135938
1764920611687,-2.5713725,5.2600613,8.171411,0.21746802,-0.84665924,0.204029
1764920611741,1.9153614,2.9496565,5.439626,0.15882497,-1.0152581,0.14782938
1764920611795,-0.90740246,1.13964,8.192958,0.081855945,-1.0054842,0.034208454
1764920611851,-0.3184288,-2.7269957,6.847417,-0.064751714,-0.0720821,0.30665436
1764920611903,-3.3542767,4.10845,9.23683,-0.058643065,0.073303826,0.23090707
1764920611956,-3.466804,6.9048777,8.109161,0.07819075,-0.8503244,0.052534413
1764920612008,-4.644751,7.5465236,5.755661,-0.12950343,0.6963864,0.1881465
1764920612060,2.1212628,-5.401319,8.516175,0.11362094,-2.2003367,0.30298916
1764920612112,3.2369606,-4.4125137,7.252037,-0.20769419,1.1850786,0.50335294
1764920612165,-0.20590134,2.1811178,11.695675,-0.30787608,2.017077,0.4166101
1764920612220,1.2114661,11.008539,4.024653,0.07696902,-0.5204572,-0.18081611
1764920612271,-2.2098482,10.019734,15.83525,-0.30909783,-0.12095132,0.052534413
1764920612323,0.5674258,-2.6551697,8.968679,-0.26633725,-0.3115413,0.12339478
1764920612375,1.4269443,-0.50278234,12.179304,-0.14294247,0.22357668,-0.017104227
1764920612427,0.830788,0.7445967,9.5385,0.12950343,-0.4202753,-0.25900686
1764920612480,-0.6775591,2.2050598,7.381324,0.04886922,0.39584067,-0.3359759
1764920612538,-2.5929205,2.5498247,8.499416,-0.22602014,0.6365216,-0.25289822
1764920612591,-3.3446999,1.8914193,10.024523,-0.22113322,0.4251622,-0.1966986
1764920612643,-2.9400797,1.292869,10.378864,-0.14294247,0.1282817,-0.1441642
1764920612699,-2.8802247,0.93373865,10.206482,0.013439035,-0.080634214,-0.07819075
1764920612755,-3.383007,1.2066777,9.615114,0.036651913,0.09773844,-0.028099801
1764920612807,-3.2130187,1.4437037,9.617508,0.03176499,0.10995574,0.028099801
1764920612860,-2.5761611,1.6543933,9.528923,0.06352998,0.15393804,0.12095132
1764920612912,-2.0901382,1.70946,9.136273,0.07941248,-0.010995574,0.12705997
1764920612966,-1.9057846,1.5801731,8.856153,0.064751714,0.04642576,0.13072516
1764920613020,-2.006341,1.3958195,9.239224,0.039095376,0.036651913,0.13805555
1764920613072,-2.1547816,1.508347,9.473856,0.043982297,0.13927728,0.13927728
1764920613125,-1.9776106,1.7070658,9.196129,0.062308256,-0.028099801,0.1282817
1764920613178,-1.6998832,1.7788919,8.939949,0.062308256,-0.080634214,0.10629055
1764920613231,-1.496376,1.7405846,8.892065,0.05375614,-0.047647487,0.095294975
1764920613284,-1.412579,1.685518,9.01417,0.04153884,-0.04642576,0.07452556
1764920613338,-1.5897499,1.8914193,9.119514,0.018325957,-0.015882496,0.04153884
1764920613392,-1.6089035,1.8028339,9.181764,0.018325957,0.014660766,0.030543262
1764920613444,-1.4820108,1.6903064,8.961497,0.02076942,-0.019547688,0.014660766
1764920613500,-1.9033904,1.8938135,8.966286,0.018325957,-0.05009095,0.018325957
1764920613553,-1.745373,1.9536686,9.179369,0.0036651916,-0.13683382,0.004886922
1764920613610,-1.2952632,1.7645266,9.41879,-0.012217305,-0.030543262,-0.007330383
1764920613664,-1.4532804,1.6903064,10.216059,0.0036651916,0.3494149,-0.02565634
1764920613721,-2.2266076,1.8363527,9.770737,0.07574729,0.13805555,-0.06719518
1764920613777,-2.6910827,2.195483,8.767567,0.073303826,0.013439035,-0.056199603
1764920613829,-2.2816741,1.9512744,8.789114,0.052534413,-0.052534413,-0.040317107
1764920613881,-2.2050598,1.8698715,8.913613,0.037873644,0.0012217305,-0.035430185
1764920613937,-2.1068976,1.7381904,9.004593,0.02443461,0.014660766,-0.05375614
1764920613989,-2.3104045,1.8124107,8.892065,0.02321288,0.056199603,-0.05375614
1764920614041,-2.5761611,1.9752164,9.066842,0.028099801,0.018325957,-0.04520403
1764920614093,-2.504335,1.8483237,8.913613,0.03176499,0.019547688,-0.03176499
1764920614145,-2.5905263,1.9632454,8.848969,0,0.015882496,-0.02076942
1764920614197,-2.5067291,1.9800048,9.078813,-0.0012217305,-0.015882496,-0.009773844
1764920614250,-2.4492683,1.7932571,8.942344,0.0036651916,-0.05375614,-0.009773844
1764920614306,-2.4636335,1.8746599,9.141062,0.0012217305,0.004886922,0.007330383
1764920614358,-2.2601264,1.9249382,9.040505,0.0036651916,-0.009773844,0.013439035
1764920614411,-2.1883004,1.9153614,9.176975,0.0012217305,0.0061086523,0.010995574
1764920614465,-2.3127987,1.982399,9.157822,0.013439035,0.007330383,0.004886922
1764920614519,-2.2505496,2.0638018,9.102755,0.019547688,-0.02687807,0.0012217305
1764920614577,-2.504335,1.9680338,9.016563,0.02565634,-0.03176499,0.002443461
1764920614631,-2.408567,2.030283,9.01417,0.028099801,-0.028099801,0.029321533
1764920614684,-2.2170308,2.0829554,8.949526,0.02565634,-0.05009095,0.032986723
1764920614740,-2.0901382,2.2098482,8.856153,0.014660766,-0.056199603,0.03176499
1764920614793,-1.9632454,2.0829554,8.829816,0.004886922,-0.073303826,0.02687807
1764920614846,-2.0470424,2.1883004,8.868123,-0.007330383,-0.015882496,0.028099801
1764920614898,-1.8531121,2.1763294,8.863335,-0.019547688,-0.037873644,0.012217305
1764920614951,-1.9393034,2.0709844,8.963891,-0.02565634,-0.0036651916,0.002443461
1764920615004,-1.8626889,1.9560628,9.009381,-0.028099801,0.0012217305,-0.007330383
1764920615061,-1.8531121,2.054225,9.095572,-0.02565634,-0.035430185,-0.015882496
1764920615114,-1.8698715,1.9680338,9.239224,-0.02443461,0.0036651916,-0.019547688
1764920615168,-1.9081788,1.8435353,9.160215,-0.015882496,0.018325957,-0.02565634
1764920615221,-1.8507179,1.9847932,9.181764,-0.008552114,-0.019547688,-0.058643065
1764920615274,-1.8076223,1.9081788,8.968679,-0.015882496,0.002443461,-0.062308256
1764920615327,-1.8507179,1.9249382,9.109938,-0.02443461,-0.019547688,-0.07452556
1764920615380,-1.9129672,1.8746599,8.968679,-0.03176499,-0.040317107,-0.080634214
1764920615432,-2.0231004,1.9057846,9.105149,-0.035430185,-0.03176499,-0.0842994
1764920615484,-1.8914193,1.769315,9.095572,-0.034208454,-0.09407325,-0.08307768
1764920615537,-1.8842367,1.8004397,9.184157,-0.02687807,-0.04153884,-0.080634214
1764920615590,-1.9871874,1.7932571,9.301474,-0.03176499,-0.0842994,-0.095294975
1764920615644,-2.0350714,1.7262194,9.325416,-0.036651913,-0.012217305,-0.096516706
1764920615697,-1.8555063,1.661576,9.428367,-0.021991149,-0.052534413,-0.09285152
1764920615749,-1.9249382,1.5825673,9.464279,-0.014660766,0.009773844,-0.09162979
1764920615805,-1.946486,1.6927006,9.433155,-0.004886922,-0.02321288,-0.1001819
1764920615859,-2.0039468,1.6807296,9.459491,0.013439035,0.021991149,-0.10140363
1764920615911,-1.9895816,1.6950948,9.313444,0.02687807,-0.0036651916,-0.10751228
1764920615965,-2.1906946,1.6472107,9.155427,0.030543262,0.030543262,-0.10629055
1764920616017,-2.3343468,1.7286136,8.7771435,0.013439035,0.03176499,-0.087964594
1764920616069,-2.5594015,1.7525556,8.913613,-0.008552114,0.06719518,-0.0720821
1764920616125,-2.6384103,1.5586253,8.75799,-0.017104227,0,-0.05009095
1764920616177,-2.099715,1.6160861,8.978256,-0.04153884,-0.10262536,-0.02321288
1764920616230,-1.9967642,1.6136919,9.382876,-0.043982297,-0.05009095,-0.008552114
1764920616283,-1.7788919,1.745373,9.392453,-0.021991149,-0.119729586,-0.009773844
1764920616336,-1.4053963,1.7597382,9.224859,0.002443461,-0.10751228,-0.034208454
1764920616389,-1.7046716,1.7956513,9.241618,0.004886922,-0.043982297,-0.043982297
1764920616445,-1.5993267,2.0949266,9.176975,0.010995574,-0.096516706,-0.05375614
1764920616498,-1.2282255,1.6831238,8.983045,0.04642576,-0.25778514,-0.07086037
1764920616550,-1.2545617,1.6927006,9.004593,0.02687807,-0.2773328,-0.09162979
1764920616604,-1.0606314,1.5059528,9.088389,0,-0.19425514,-0.10629055
1764920616656,-0.94331545,1.5921441,9.346964,-0.02565634,-0.14538592,-0.14172074
1764920616709,-1.1204864,1.553837,9.212888,-0.034208454,-0.05009095,-0.14905111
1764920616763,-1.2761095,1.673547,9.275137,-0.042760566,-0.034208454,-0.15393804
1764920616816,-1.4030021,1.4197617,9.13388,-0.059864793,0.07819075,-0.1600467
1764920616868,-1.6376339,1.4317327,9.289502,-0.062308256,0.087964594,-0.1600467
1764920616921,-1.697489,1.3982137,9.210494,-0.062308256,0.062308256,-0.15515977
1764920616979,-1.6591818,1.3383588,9.267955,-0.058643065,0.013439035,-0.14905111
1764920617031,-1.4197617,1.2617443,9.155427,-0.07086037,0.05009095,-0.14660765
1764920617084,-1.6807296,1.2282255,9.414001,-0.080634214,0.14049901,-0.14172074
1764920617140,-1.6280571,1.2330139,9.289502,-0.064751714,0.11484267,-0.15027285
1764920617196,-1.4532804,1.1372458,9.057265,-0.056199603,0.0061086523,-0.1685988
1764920617249,-1.733402,1.1683705,9.009381,-0.07574729,0.13439035,-0.17715092
1764920617302,-1.982399,0.89064306,9.165004,-0.10629055,0.1600467,-0.18203785
1764920617357,-2.0350714,0.8762778,9.085996,-0.119729586,0.2968805,-0.17348573
1764920617409,-2.6072857,0.91458505,9.241618,-0.11362094,0.16249016,-0.17470746
1764920617461,-3.040636,0.82121116,9.433155,-0.11728613,0.26267207,-0.14049901
1764920617513,-2.6024973,0.830788,9.361329,-0.103847094,-0.019547688,-0.13805555
1764920617565,-2.8874073,0.6895301,9.55047,-0.10873401,0.17837265,-0.10873401
1764920617617,-2.7700913,0.56982,9.655815,-0.08552113,0.05375614,-0.087964594
1764920617670,-3.107674,0.45489833,9.871294,-0.06352998,0.15149458,-0.061086524
1764920617729,-2.942474,0.4285621,9.56723,-0.030543262,-0.06963864,-0.062308256
1764920617783,-3.064578,0.5434838,9.524135,-0.0036651916,-0.02443461,-0.018325957
1764920617836,-3.1244333,0.4405331,9.674969,0.008552114,0.017104227,0.0061086523
1764920617900,-2.6719291,0.6967127,9.241618,0.02321288,-0.11484267,0.019547688
1764920617952,-2.741361,0.6464345,9.334992,0.017104227,-0.021991149,0.040317107
1764920618006,-2.6671407,0.62249243,9.488221,0.028099801,-0.09407325,0.047647487
1764920618060,-2.3080103,0.5793968,9.825804,0.012217305,0.18203785,0.06352998
1764920618116,-2.2290018,0.62728083,9.68694,0.062308256,0.056199603,0.06963864
1764920618168,-2.0614076,0.90740246,9.172187,0.07452556,0.030543262,0.059864793
1764920618220,-2.3343468,1.3335704,8.872911,0.012217305,0,-0.0036651916
1764920618273,-2.207454,1.0462662,9.299079,-0.0036651916,0,-0.008552114
1764920618326,-1.8219875,0.6871359,9.208099,0.0012217305,-0.07574729,-0.02687807
1764920618380,-2.542642,1.2880806,9.507375,0.047647487,-0.02565634,-0.05131268
1764920618432,-2.2601264,0.7254431,8.935161,0.07086037,-0.25778514,-0.07696902
1764920618485,-2.4540567,0.82121116,8.805874,0.029321533,-0.13194689,-0.06963864
1764920618537,-2.3127987,0.8451532,9.718064,-0.018325957,-0.1001819,-0.047647487
1764920618589,-2.0494366,0.9840169,9.64145,0.0012217305,-0.09285152,-0.021991149
1764920618641,-1.7310078,1.0654198,9.7563715,0.009773844,-0.1001819,-0.021991149
1764920618698,-1.553837,0.89303726,9.545682,0.06719518,-0.14660765,-0.05131268
1764920618751,-1.6903064,0.9576807,9.710882,0.095294975,-0.119729586,-0.089186326
1764920618804,-1.9321208,0.80205756,9.416395,0.14538592,-0.16126843,-0.12461651
1764920618857,-2.2960393,0.93134445,8.942344,0.17470746,-0.043982297,-0.10995574
1764920618912,-2.5187001,1.757344,4.000711,0.111177474,-0.204029,-0.059864793
1764920618966,-1.3431472,-0.30885202,9.859323,0.04642576,-0.42394048,-0.034208454
1764920619019,-2.3989902,0.82599956,9.3661175,0.0720821,-0.35796702,0.08552113
1764920619071,-0.89064306,0.93852705,8.913613,0.09162979,-0.34697145,0.14538592
1764920619124,2.1667526,0.6775591,8.456321,0.007330383,0.02687807,0.05375614
1764920619176,-1.1899183,1.3263878,8.808268,0.032986723,-0.095294975,0.039095376
1764920619229,0.11731588,0.16280572,9.035717,0.010995574,0.05375614,-0.007330383
1764920619281,-2.0159178,2.123657,9.469068,0.02443461,-0.1441642,-0.07086037
1764920619333,-0.79726917,1.0749966,9.40203,0.043982297,-0.14660765,-0.02321288
1764920619386,-1.9800048,1.0295067,10.101137,0.013439035,0.10873401,-0.002443461
1764920619439,-1.1204864,1.3383588,9.871294,0.034208454,-0.1282817,0.004886922
1764920619498,-1.1540052,1.3479356,9.832987,0.09773844,-0.035430185,0.029321533
1764920619550,-1.2665327,1.1372458,9.260772,0.096516706,0.118507855,0.03176499
1764920619602,-3.193865,1.412579,10.33098,0.065973446,0.29443705,0.04520403
1764920619655,-1.0175357,1.3359646,8.279149,0.009773844,0.04642576,0.052534413
1764920619708,-0.36152446,1.9369092,9.004593,-0.02443461,0.07574729,0.042760566
1764920619761,-0.78290397,1.8052281,8.774749,-0.029321533,-0.073303826,0.0012217305
1764920619815,-1.5825673,1.283292,10.25676,-0.040317107,-0.21502456,-0.0061086523
1764920619868,-1.3455414,1.0486604,11.204864,-0.008552114,0.07452556,0.012217305
1764920619920,-1.0414777,1.1803415,11.60709,0.07696902,0.0061086523,0.0012217305
1764920619973,-1.5801731,1.2210429,13.10586,0.30909783,0.19914207,0.010995574
1764920620027,-2.5067291,1.5035586,14.583082,0.45570546,0.21868975,0.013439035
1764920620081,-2.6791117,1.4101849,17.381905,0.6426302,0.12950343,0.02076942
1764920620133,-3.4596214,1.1013328,22.019472,1.3096951,0.3042109,0.10995574
1764920620186,-4.7860093,0.37588966,21.756111,1.7507398,0.16126843,0.17715092
1764920620238,-4.237737,-0.50757074,22.92927,2.1844542,0.54000485,0.28221974
1764920620295,-2.9712043,-3.0885203,21.42571,3.1923819,-0.012217305,0.41416663
1764920620349,-1.9009962,-6.2009826,21.332336,3.6505308,0.4288274,0.46303585
1764920620402,-1.1300632,-8.231265,16.881516,4.1245623,0.53878313,0.52656585
1764920620455,-0.4285621,-12.816162,7.7189064,4.6890016,0.52778757,0.5314528
1764920620507,-1.6041151,-13.500903,1.5921441,4.7207665,0.72204274,0.675617
1764920620565,0.35434186,-13.486538,-2.0733786,4.660902,0.68661255,0.8002335
1764920620619,0.60573304,-12.689269,-6.244078,4.318817,0.7244862,1.2241739
1764920620672,1.7286136,-12.643779,-7.285556,4.111123,0.8026769,1.2620476
1764920620724,2.2768857,-12.899959,-9.085996,3.8887682,0.58276546,1.3084733
1764920620778,4.7022123,-11.370064,-16.804901,3.2803464,0.2321288,1.1349876
1764920620833,7.041347,-8.892065,-24.39931,2.8429668,-0.8246681,0.87964594
1764920620885,9.330204,-6.95755,-26.4679,2.1600194,0.008552114,0.6291912
1764920620937,9.349358,-3.2680852,-46.016556,-0.09162979,-0.6585127,0.009773844
1764920620992,8.628703,-7.180211,-45.82502,-1.5540411,-0.593761,-0.27488935
1764920621051,6.042965,-12.785037,-43.11957,-2.9810224,-1.0958922,-0.48380527
1764920621103,2.741361,-34.715923,-35.953728,-5.4916787,-1.0250319,-0.37140608
1764920621155,2.4971523,-45.772346,-29.257145,-6.618114,-1.070236,-0.2003638
1764920621210,4.223372,-55.418587,-19.867086,-7.456221,-1.6530013,0.010995574
1764920621264,6.0118403,-62.30431,2.2266076,-8.241794,-1.3231341,0.3555236
1764920621317,9.074024,-63.862938,20.999542,-8.063421,-0.04886922,0.47769663
1764920621372,3.1890767,-31.962593,58.44007,-5.8264327,-0.874759,0.3115413
1764920621425,4.3526587,-13.8241205,67.43748,-3.9449677,-0.5290093,0.40561453
1764920621477,5.410896,-0.007182605,68.92428,-2.0451767,-0.03176499,0.32620203
1764920621536,5.645528,3.0358477,67.81337,1.3048081,0.002443461,-0.0036651916
1764920621589,8.7125,-8.772355,64.30586,3.0360003,0.45204028,-0.0061086523
1764920621642,13.081918,-26.317064,55.713074,4.6938887,0.89675015,-0.1966986
1764920621695,5.6527104,-53.591812,30.784645,7.447669,1.8961257,0.28099802
1764920621747,4.9536033,-64.32741,11.930307,8.107404,2.2296581,0.7098254
1764920621799,4.1946416,-65.565216,0.04070143,8.233242,1.8545868,1.2425
1764920621857,6.0046577,-58.334724,-13.883976,7.5820594,2.4666739,1.7018706
1764920621910,8.9040365,-50.170498,-25.210943,7.0139546,0.95905846,1.9462167
1764920621963,13.771448,-41.32392,-36.660015,6.0585613,0.344528,1.6823229
1764920622020,23.70499,-16.345215,-64.693726,2.8038714,-0.17837265,0.50701815
1764920622072,21.181503,-9.856929,-77.469185,0.47525316,0.18936823,-0.23090707
1764920622124,15.792154,-18.739416,-72.4653,-2.2675319,-1.0910053,-0.8857546
1764920622176,10.445902,-54.705116,-46.363716,-6.745174,-1.8203784,-1.1594223
1764920622228,6.694188,-71.79014,-31.847672,-8.141612,-2.5766296,-0.91507614
1764920622280,9.509769,-78.44363,-15.018827,-9.023702,-2.5912905,-0.267559
1764920622333,11.118672,-78.44363,11.3964,-9.198409,-1.9120082,0.61208695
1764920622386,7.759608,-77.457214,28.864496,-8.718268,-0.75991637,0.5705481
1764920622438,9.622296,-59.19903,52.392315,-7.571064,-1.6639969,0.7086037
1764920622493,11.329363,-12.229582,70.6912,-3.9926152,-0.10629055,0.28710666
1764920622546,8.511387,2.0470424,71.94097,-2.1380284,-0.21624629,-0.12095132
1764920622600,4.1539397,4.292804,73.46129,-0.26511553,0.039095376,-0.27366763
1764920622652,5.4683566,-12.191275,68.71359,3.4245105,1.8875736,-0.3726278
1764920622705,8.350976,-27.250803,55.665188,5.1728067,2.4495697,-0.16615535
1764920622757,5.1523223,-44.709324,46.710876,6.6217794,3.0921998,0.10751228
1764920622811,2.6982653,-64.63626,10.077195,8.199034,1.7922786,1.1801916
1764920622869,2.3319526,-63.25481,-1.8267759,8.10496,1.9339994,1.7165314
1764920622921,5.470751,-58.91412,-8.408437,7.5319686,0.6206391,1.921782
1764920622973,8.597578,-47.426743,-16.290148,6.4116416,0.27000242,1.9620992
1764920623026,8.959103,-43.93839,-21.238964,5.880189,0.67073005,1.7849482
1764920623078,14.889541,-35.697548,-34.823666,5.188689,0.040317107,1.4391985
1764920623136,15.794549,-16.66125,-62.86216,2.4373524,0.5864306,0.3115413
1764920623191,15.21994,-12.344504,-70.65529,0.12461651,-0.07696902,-0.27122417
1764920623243,14.714764,-19.093758,-68.17968,-2.3738225,-0.73914695,-0.7806858
1764920623296,8.025364,-58.219803,-44.920013,-6.8331385,-1.1484267,-1.1398746
1764920623349,3.1172507,-78.43644,-35.843594,-8.291884,-1.1936307,-0.98471475
1764920623403,4.7524905,-78.44363,-22.665907,-9.459859,-1.8594738,-0.57910025
1764920623456,10.479421,-78.44363,4.4915223,-10.297966,-1.2791518,0.089186326
1764920623508,10.304645,-78.44363,28.960264,-10.134254,-1.8081611,0.36774087
1764920623560,10.1226845,-78.39574,58.581326,-9.05791,-2.2296581,0.6072
1764920623612,18.140865,-18.871098,78.426865,-4.411669,-0.7281514,1.028697
1764920623663,19.486408,-2.9831753,78.426865,-1.9120082,-0.88331115,0.4654793
1764920623717,15.423448,2.2744915,78.05576,0.408058,0.376293,0.14294247
1764920623771,11.147403,-18.282124,63.640274,3.9266417,1.073901,-0.6206391
1764920623824,11.944673,-33.63135,50.881573,5.3805013,1.8069394,-0.5180137
1764920623876,11.717223,-50.254295,38.604107,6.6938615,1.6200147,-0.57787853
1764920623930,8.456321,-64.79428,9.083601,8.021882,1.1704178,-0.19425514
1764920623985,6.078878,-67.94266,1.8794483,8.145277,1.3878858,-0.06963864
1764920624040,2.8754363,-66.54684,-4.783615,8.119621,1.4526376,0.24801129
1764920624092,2.695871,-57.31719,-16.22311,7.2692966,1.6786577,1.1863003
1764920624145,7.091625,-50.534416,-29.762321,6.6792006,0.6658431,1.3805555
1764920624197,9.844957,-38.39821,-43.95036,5.639508,0.9761627,1.3390167
1764920624250,17.398664,-15.344439,-64.188545,2.2137756,0.1881465,0.5204572
1764920624304,14.611813,-12.789825,-70.786964,-0.0036651916,-0.18203785,-0.047647487
1764920624357,13.472173,-18.914194,-68.44065,-2.3701572,-1.0079277,-0.49357912
1764920624411,8.042124,-53.859962,-46.083595,-6.718296,-1.6077974,-0.87964594
1764920624464,5.5282116,-73.27694,-33.114204,-8.119621,-1.6786577,-0.6206391
1764920624516,3.169923,-78.44363,-20.070593,-8.984606,-1.6383406,-0.2846632
1764920624578,6.3949127,-78.44363,1.388637,-9.579589,-0.61575216,0.53878313
1764920624630,14.642938,-78.44363,17.51598,-9.409768,-2.3139575,0.752586
1764920624685,12.284649,-76.078156,37.703888,-8.699943,-0.9053023,0.7086037
1764920624738,12.856863,-26.60437,75.151596,-5.4599137,-0.675617,0.5546656
1764920624791,8.707711,-10.989386,78.426865,-3.2400293,-0.24190263,0.31031954
1764920624844,9.0716305,0.22505496,75.24737,-0.88208944,0.2003638,0.10751228
1764920624896,2.8491,-0.62249243,60.66189,2.375044,0.66950834,-0.1282817
1764920624949,2.4037786,-11.803414,60.125587,3.6884043,1.033584,-0.095294975
1764920625001,6.1770406,-29.70486,54.84637,5.176472,1.428203,0.015882496
1764920625055,4.3718123,-60.40092,28.852524,7.542964,1.5149459,0.5900958
1764920625108,4.951209,-70.58106,17.74343,8.243015,1.486846,0.8393288
1764920625160,5.257667,-76.17871,4.4795513,8.660848,1.8961257,1.2547172
1764920625212,4.7405195,-68.256294,-10.9103775,8.09763,1.4501941,1.8655825
1764920625265,5.0493712,-63.343395,-16.235083,7.5820594,1.346347,2.1636846
1764920625318,8.453926,-57.379436,-24.751257,6.7573915,0.7305948,2.1991148
1764920625370,23.72654,-31.936256,-53.919815,4.382347,1.078788,1.6102408
1764920625423,27.255592,-14.800955,-68.560356,2.3848178,0.65240407,0.8356637
1764920625475,24.064121,-13.627796,-69.37439,-0.16737708,-0.79045963,-0.2565634
1764920625532,18.181568,-37.39743,-57.530273,-4.935791,-1.3573426,-1.609019
1764920625592,14.33648,-60.724136,-45.707706,-6.9369855,-1.5564847,-1.7947221
1764920625645,9.68694,-78.44363,-31.890766,-8.379849,-1.5393804,-1.7629571
1764920625698,7.8386164,-78.44363,-5.9663506,-9.568593,-2.0329595,-0.80756384
1764920625751,6.991069,-78.44363,2.3894134,-9.727418,-0.7134906,-0.5571091
1764920625804,12.169727,-78.44363,15.346833,-9.633345,-3.4037411,-0.172264
1764920625859,12.445061,-52.1098,66.872444,-7.5014253,-2.13925,0.09896017
1764920625912,7.69257,-24.95237,76.109276,-5.136155,-0.29443705,0.15760323
1764920625965,7.1251445,-5.439626,78.426865,-2.9003882,-0.034208454,-0.17348573
1764920626019,-2.6479871,4.405331,66.616264,1.0983357,0.80878556,-0.3042109
1764920626072,-9.890448,-2.5881321,61.083267,2.6108382,2.0720549,0.02076942
1764920626129,-3.9240966,-29.170954,49.43787,5.307197,2.2247713,0.88697636
1764920626182,0.545878,-44.75242,36.916195,6.4531803,2.4666739,1.4575244
1764920626235,2.5929205,-54.06347,19.665974,7.150789,2.8099802,2.0415115
1764920626291,5.925649,-60.88934,0.24420857,7.369478,0.5693264,2.8173106
1764920626343,9.172187,-57.95405,-9.14585,7.286401,0.0012217305,2.6548204
1764920626397,12.052411,-51.506462,-15.186421,6.8331385,0.84421575,2.4397957
1764920626449,11.621455,-40.512287,-29.44868,5.5906386,0.9407325,1.7947221
1764920626501,16.821661,-24.768017,-49.9622,4.2186356,0.030543262,1.2437216
1764920626555,15.792154,-14.168885,-60.204597,2.8050933,-0.27977628,0.73426
1764920626612,15.198392,-18.418594,-66.5612,-2.4422393,-1.4074335,-0.41538838
1764920626664,11.3964,-31.862036,-53.156067,-4.5387287,-1.5515977,-0.6267477
1764920626716,8.573636,-44.85537,-37.00478,-6.0891047,-1.423316,-0.6792821
1764920626767,5.686229,-62.2684,-14.381969,-7.638259,-1.1924089,-0.39950588
1764920626819,2.4396915,-65.9004,-7.644686,-7.957131,-0.84788096,-0.3481932
1764920626872,5.00867,-69.561134,-3.0597897,-8.195368,-0.99082345,-0.0842994
1764920626924,4.996699,-69.707184,5.482722,-8.33098,1.6676621,-0.2687807
1764920626977,-3.8857894,-50.15613,51.57829,-7.3279395,0.9468411,-0.90285885
1764920627030,-3.7828386,-31.524454,67.50212,-5.574756,-1.2730432,-0.9615019
1764920627083,-8.822633,-10.824186,74.97922,-3.4880404,-0.25778514,-0.6084218
1764920627135,-10.086772,4.534618,69.17088,0.3555236,1.0567969,-0.22968534
1764920627189,-10.457873,1.7932571,58.07136,1.9401081,1.237613,0.059864793
1764920627243,-11.343728,-6.2249246,58.710613,3.1972687,0.893085,0.33108896
1764920627296,-6.555324,-37.490803,37.246597,5.771455,2.3872614,1.4746287
1764920627349,-0.830788,-49.87601,25.653872,6.594901,1.7421877,2.0402899
1764920627401,2.4157495,-55.042698,11.075577,7.1263537,1.4245378,2.453235
1764920627454,4.879383,-57.017914,-2.882619,7.283957,0.17715092,2.6193902
1764920627510,6.0836663,-53.333237,-15.198392,7.2192054,-0.44104472,2.298075
1764920627567,10.156203,-37.656006,-27.475859,5.975484,-0.25900686,1.6920967
1764920627619,9.885659,-28.886044,-40.948032,5.0469685,0.080634214,1.2913691
1764920627673,9.904813,-18.813637,-50.838478,3.5992181,0.03176499,0.9260717
1764920627729,10.192117,-10.99178,-68.3377,-0.25534168,-0.009773844,0.15149458
1764920627782,9.600749,-17.01559,-65.134254,-2.5631905,-1.2253957,-0.18448131
1764920627834,8.157045,-35.32166,-50.376396,-5.10439,-1.0189233,-0.31398472
1764920627890,1.1994951,-60.266846,-20.417751,-6.568023,-0.6084218,-0.39584067
1764920627944,2.3463178,-65.974625,-8.202535,-7.9937825,-1.0225884,-0.061086524
1764920627997,0.60812724,-67.669716,-0.7613561,-8.085412,-0.6646214,0.05497787
1764920628049,3.3901896,-63.951523,11.075577,-7.85084,1.1068878,0.118507855
1764920628101,5.8921304,-56.36669,25.306711,-7.606494,-0.9761627,-0.12217305
1764920628153,0.40701428,-45.793896,43.138725,-6.9467597,0.23701571,-0.17959438
1764920628209,6.0716953,-9.907207,74.0766,-3.731165,-0.42760566,0.008552114
1764920628262,5.8346696,1.2761095,78.426865,-1.6676621,-1.2400564,-0.19181168
1764920628315,5.8226986,3.4093432,74.2825,0.44715336,0.9285152,-0.009773844
1764920628369,8.329428,-12.770672,62.917225,3.8093557,0.73914695,-0.3042109
1764920628421,8.784326,-29.72162,51.525616,5.2827625,1.6493362,-0.3481932
1764920628475,5.267244,-46.706085,36.887466,6.5130453,2.3139575,-0.08552113
1764920628531,4.8003745,-64.36093,8.930372,7.855727,1.6297885,0.6731735
1764920628583,5.3247046,-64.10715,-0.94570965,7.9449134,1.6346754,1.0433578
1764920628635,4.8865657,-59.697025,-8.159439,7.69568,1.6175711,1.3695599
1764920628689,6.7205243,-49.24873,-20.503942,6.8832297,-0.23945917,1.2620476
1764920628748,6.7205243,-44.37174,-27.593174,6.21983,0.29565877,1.0409144
1764920628801,10.335769,-35.2642,-42.858604,5.4122663,0.07086037,0.79290307
1764920628853,10.479421,-12.097901,-73.77972,1.9999728,0.5510005,0.11728613
1764920628905,10.625467,-10.383653,-76.89936,-0.6047566,-0.28710666,-0.21746802
1764920628961,8.978256,-22.40015,-68.847664,-3.2033772,-1.1093313,-0.49235737
1764920629016,5.0397944,-62.05292,-44.481873,-7.098254,-1.0311406,-0.26511553
1764920629068,5.7867856,-78.44363,-25.998636,-8.685282,-1.8997909,-0.13439035
1764920629121,8.1642275,-78.44363,-6.531382,-9.426872,-1.8350391,0.40317106
1764920629177,7.9367785,-78.44363,20.434511,-9.055467,-1.473407,0.67073005
1764920629231,6.83784,-75.0702,30.988153,-8.321206,-1.0580186,0.7049385
1764920629283,3.7110126,-54.171207,54.20712,-7.3047266,-1.2290609,0.86132
1764920629335,11.113884,-12.907142,72.37432,-3.9278636,-0.7257079,0.73426
1764920629388,9.323022,-2.5115175,71.02639,-2.0024164,-0.058643065,0.5900958
1764920629439,11.798626,3.2273839,68.68486,-0.2284636,-0.16493362,0.31764993
1764920629491,9.153033,-6.8426285,58.454433,2.6572638,0.5363397,-0.07086037
1764920629546,9.938332,-18.411411,54.37711,4.070806,1.0445796,-0.18570304
1764920629598,10.405201,-34.435802,47.96783,5.3695054,1.2559389,-0.2919936
1764920629651,6.495469,-62.368954,23.113623,7.683463,1.8606955,0.004886922
1764920629703,4.7429137,-68.46938,7.9822683,8.304102,1.8680259,0.4202753
1764920629755,5.00867,-66.38642,-4.3598413,8.382293,1.3500122,0.7452556
1764920629810,4.175488,-57.30043,-19.223045,7.579616,0.5876524,1.0531317
1764920629865,8.389283,-47.948677,-28.452694,6.9699726,0.44226643,1.0005972
1764920629917,7.807492,-37.031116,-43.040565,6.069557,0.25289822,0.7452556
1764920629970,7.050924,-13.936648,-58.61724,2.7391198,0.0061086523,0.18448131
1764920630023,3.1723173,-10.55843,-63.635487,0.6401868,-0.047647487,0.017104227
1764920630075,4.673482,-14.595054,-60.345856,-1.5430456,-0.75502944,-0.09773844
1764920630134,4.6686935,-33.054348,-48.185703,-5.1422634,-1.2938126,-0.13805555
1764920630187,4.6255975,-49.090714,-37.62967,-6.6205573,-1.1936307,-0.007330383
1764920630240,1.8962077,-64.22207,-26.439169,-7.68835,-0.93584555,0.0842994
1764920630292,6.5577183,-78.44363,-2.552219,-8.688948,-1.0421361,0.829555
1764920630347,10.869676,-78.44363,5.3199162,-8.624195,-2.1868975,1.033584
1764920630400,12.543222,-70.865974,25.845407,-8.381071,-0.35063666,1.0897835
1764920630452,7.062895,-32.379185,64.98821,-5.8239894,-1.2217305,1.1362094
1764920630504,14.53041,-14.982914,71.730286,-3.8973203,-1.3329079,1.1679744
1764920630556,16.953342,-3.0669725,72.67839,-1.9620992,-0.7293731,0.8552113
1764920630608,16.678009,1.1180922,61.909267,1.5858061,0.42149702,-0.07819075
1764920630662,16.637308,-5.801151,56.574986,2.9541442,0.012217305,-0.5705481
1764920630717,13.972561,-18.385075,48.580746,4.246735,1.0714576,-0.8356637
1764920630771,6.2728086,-47.50575,32.786198,6.340781,1.6945401,-0.9407325
1764920630823,5.3366756,-60.154316,22.965183,7.2558575,1.6554449,-0.63041294
1764920630887,4.5394063,-66.7264,12.239159,7.865501,1.6969837,-0.27122417
1764920630939,5.9041014,-67.83971,-7.3669586,8.12573,0.92485,0.22724187
1764920630991,4.927267,-62.835823,-18.133684,7.8936005,1.8032742,0.49480084
1764920631046,8.889671,-45.96149,-48.29105,6.5668015,1.1728612,0.46914452
1764920631099,6.739678,-24.272417,-64.58359,4.9419,1.3182472,0.5497787
1764920631153,5.542577,-10.67814,-66.77189,2.6340508,-0.33964106,0.4447099
1764920631208,5.1786585,-17.195156,-66.74795,-2.0952678,-0.6267477,0.20891592
1764920631261,7.644686,-30.480581,-59.19185,-4.24307,-1.6737708,0.13683382
1764920631318,8.578424,-46.83777,-50.129795,-6.082996,-1.459968,0.20280726
1764920631370,8.243237,-78.44363,-29.312212,-8.829446,-1.6285667,0.27366763
1764920631423,8.090008,-78.44363,-14.518439,-9.62968,-0.80756384,0.39828414
1764920631475,5.1140146,-78.44363,1.5658079,-9.854478,-2.71102,0.55833083
1764920631528,18.725052,-62.005035,58.253323,-7.9717913,-3.0934217,1.4172074
1764920631581,14.219164,-33.30574,66.83653,-5.9681535,0.2932153,1.5882497
1764920631635,19.177555,-14.709975,59.57971,-3.9767327,0.02076942,0.99082345
1764920631690,7.66384,-3.1651347,39.6815,-1.4074335,0.111177474,0.18692477
1764920631743,4.429273,0.18435353,29.530085,-0.59986967,0.16371189,0.09285152
1764920631796,3.9911342,0.5674258,22.337902,-0.204029,0.2773328,0.047647487
1764920631848,2.966416,0.62728083,13.855246,0.13561209,-0.004886922,-0.06841691
1764920631901,0.9935937,0.81642276,11.432313,0.2284636,0.0842994,-0.06963864
1764920631953,0.9720459,0.6344634,9.210494,0.27000242,-0.0036651916,-0.04153884
1764920632006,1.0510546,0.8738836,8.329428,0.23090707,-0.032986723,-0.057421334
1764920632059,1.352724,0.8858546,8.50181,0.19058995,-0.018325957,-0.04153884
1764920632112,1.42455,0.8690952,8.65025,0.172264,0.08552113,-0.034208454
1764920632171,1.13964,0.93852705,9.126697,0.13805555,0.10873401,-0.04153884
1764920632224,0.94570965,1.0031705,9.816227,0.14538592,0.19303341,-0.032986723
1764920632276,0.6488287,1.340753,10.070012,0.1600467,0.16615535,-0.02443461
1764920632328,0.45010993,1.472434,9.835381,0.19792034,0.07452556,0.008552114
1764920632381,0.4189853,1.6280571,9.722853,0.20647246,0.058643065,0.02565634
1764920632433,0.33997664,1.2354081,9.607931,0.21624629,0.15882497,0.05375614
1764920632487,0.5554548,1.6687586,8.892065,0.23090707,-0.07819075,0.073303826
1764920632540,1.0630256,1.7118542,8.540117,0.20525073,-0.019547688,0.081855945
1764920632592,0.82121116,2.0374656,8.463503,0.1685988,0.032986723,0.0842994
1764920632645,0.9696517,2.0446482,8.870518,0.095294975,0.12461651,0.081855945
1764920632698,1.1252748,1.9608512,8.743625,0.08552113,0.034208454,0.065973446
1764920632751,1.13964,1.8148049,8.872911,0.065973446,-0.05009095,0.052534413
1764920632806,0.93852705,2.1092918,8.805874,0.05131268,-0.057421334,0.035430185
1764920632859,0.9672575,2.111686,8.566454,0.036651913,0,0.05375614
1764920632912,0.9864111,2.135628,8.523358,0.010995574,-0.07819075,0.05131268
1764920632968,1.7166426,1.8914193,8.477868,-0.06719518,-0.105068825,0.032986723
1764920633022,1.8148049,2.2266076,9.222465,-0.09285152,-0.13194689,0.004886922
1764920633075,1.697489,2.0015526,9.672575,-0.0842994,0.09285152,0.007330383
1764920633127,1.4820108,1.7860745,9.572019,-0.04642576,0.0012217305,-0.014660766
1764920633180,1.2904748,1.7429788,9.703699,-0.05131268,0.05131268,-0.018325957
1764920633233,1.8650831,1.4772224,10.840945,-0.030543262,0.13561209,-0.019547688
1764920633289,1.7525556,1.2114661,10.776301,0.09896017,0.19425514,-0.064751714
1764920633342,1.6783354,1.9416976,11.822568,0.20891592,-0.39706242,-0.14049901
1764920633394,3.2800562,0.2681506,14.338874,0.37140608,-0.46670106,-0.18570304
1764920633446,0.51954174,1.9129672,15.270219,0.61086524,0.3323107,-0.27855456
1764920633498,0.7517793,2.0925324,11.286267,0.79901177,0.25411993,-0.2443461
1764920633553,-0.9816227,3.4117374,9.718064,0.75625116,0.36774087,-0.23335053
1764920633608,-1.8674773,3.25372,2.9113493,0.59986967,-0.13316862,-0.08552113
1764920633660,-1.520318,3.2585084,2.882619,0.34697145,-0.44837508,-0.047647487
1764920633714,-0.4405331,3.1962593,3.715801,0.16493362,-0.48258355,0.02443461
1764920633767,0.60573304,3.550601,6.5146227,-0.04642576,-0.1881465,0.05497787
1764920633820,2.2361844,2.6982653,7.6973586,-0.09407325,-0.18936823,0.04153884
1764920633873,0.5243302,3.442862,9.054871,-0.105068825,0.44226643,0.089186326
1764920633927,-0.78529817,3.0071173,10.029311,-0.035430185,0.6426302,0.10995574
1764920633980,0.17477672,3.0382419,10.869676,0.08552113,0.07086037,0.09773844
1764920634034,1.0606314,3.7924154,9.950302,0.08307768,-0.059864793,0.14294247
1764920634089,0.80445176,3.7780502,9.165004,0.032986723,1.4856243,0.32620203
1764920634142,0.31603462,3.8379054,8.032547,0.07819075,0.7684685,0.22235495
1764920634194,0.48362875,3.323152,6.0405707,-0.058643065,0.5204572,0.14660765
1764920634246,-2.3702598,2.042254,7.668628,-0.35918877,0.028099801,0.13072516
1764920634299,-2.956839,1.4628572,9.528923,-0.30543262,0.26389378,0.2003638
1764920634355,-3.406949,1.3694834,7.4842744,-0.2565634,0.6010914,0.27855456
1764920634409,-4.4364557,2.8275523,8.293514,-0.26511553,0.26511553,0.36774087
1764920634461,-3.799598,3.4955344,8.89446,-0.2919936,0.39828414,0.47525316
1764920634515,-2.2505496,2.956839,10.199299,-0.26145032,0.28099802,0.5375614
1764920634568,-1.6017209,4.654328,10.31901,-0.21502456,0.32498032,0.61453044
1764920634624,-0.8379706,3.3303347,10.508151,-0.17348573,0.11728613,0.593761
1764920634677,-0.59136784,3.1507695,10.117896,-0.09407325,0.06963864,0.548557
1764920634729,0.2777274,3.157952,9.615114,-0.004886922,0.042760566,0.43493605
1764920634782,0.5793968,3.442862,9.308656,0.02687807,-0.11362094,0.36163223
1764920634843,1.292869,3.110068,10.089166,0.03176499,0.19425514,0.3005457
1764920634896,1.2808979,3.478775,10.204087,0.1563815,-0.018325957,0.11484267
1764920634949,0.7781156,3.5482068,9.725247,0.20158553,0.119729586,0.04153884
1764920635009,-0.16998832,3.1651347,8.825027,0.18692477,0.36285394,-0.089186326
1764920635061,-1.2521675,3.4404678,8.640674,0.18448131,0.29443705,-0.13439035
1764920635113,-1.982399,3.4644098,8.348581,0.16249016,0.3323107,-0.14538592
1764920635166,-2.873042,3.5817258,7.654263,0.103847094,0.10751228,-0.111177474
1764920635221,-2.7605145,3.632004,7.644686,0.058643065,0.035430185,-0.062308256
1764920635276,-2.1906946,3.406949,7.8027034,0.021991149,0.057421334,-0.03176499
1764920635328,-1.7956513,3.6391866,7.678205,-0.036651913,0.037873644,-0.032986723
1764920635381,-1.99437,3.7062242,7.9152308,-0.07452556,0.105068825,-0.04520403
1764920635435,-1.5873557,3.6655228,7.8649526,-0.10262536,0.06352998,-0.05375614
1764920635488,-1.9297266,3.6296098,8.327033,-0.13072516,0.17592919,-0.09285152
1764920635541,-1.520318,3.1962593,8.394072,-0.12950343,0.002443461,-0.12705997
1764920635595,-2.3511062,3.3925838,8.566454,-0.13316862,0.13316862,-0.14049901
1764920635648,-2.4995465,3.1148565,8.508993,-0.13561209,0.06719518,-0.14049901
1764920635700,-2.516306,3.0573955,8.508993,-0.14049901,0.1160644,-0.1282817
1764920635756,-2.6288335,2.9257145,8.50181,-0.15027285,0.13805555,-0.12950343
1764920635820,-2.8203697,2.7820623,8.75799,-0.15760323,0.16615535,-0.10995574
1764920635875,-2.7509377,2.765303,8.856153,-0.15149458,0.02565634,-0.11728613
1764920635927,-2.9999347,2.669535,9.124303,-0.13927728,0.07574729,-0.09896017
1764920635979,-2.8778305,2.456451,9.112331,-0.12339478,-0.037873644,-0.10629055
1764920636032,-3.1507695,2.5306711,9.330204,-0.111177474,0.04520403,-0.09407325
1764920636085,-3.110068,2.3918076,9.002198,-0.087964594,0.096516706,-0.0720821
1764920636141,-2.846706,2.3223755,8.889671,-0.087964594,0.112399206,-0.07452556
1764920636194,-3.0669725,2.3463178,9.694122,-0.065973446,0.3005457,-0.043982297
1764920636246,-3.2968156,2.408567,8.78672,-0.012217305,-0.043982297,-0.08552113
1764920636299,-3.3854012,2.6168625,8.4108305,-0.032986723,0.032986723,-0.0720821
1764920636351,-3.550601,2.420538,8.76996,-0.039095376,0.073303826,-0.05009095
1764920636408,-3.6631286,2.2290018,8.827422,-0.037873644,0.03176499,-0.028099801
1764920636460,-3.7301662,2.2529438,8.92319,-0.029321533,0.002443461,-0.010995574
1764920636512,-3.6296098,2.2409728,9.016563,-0.02443461,-0.018325957,0.008552114
1764920636565,-3.442862,2.1883004,9.119514,0.004886922,-0.04642576,0.042760566
1764920636617,-3.193865,2.1260512,9.002198,0.02687807,-0.12950343,0.043982297
1764920636669,-3.1842883,2.2026656,9.083601,0.043982297,-0.09773844,0.058643065
1764920636722,-2.930503,2.348712,8.846576,0.065973446,-0.10873401,0.05497787
1764920636773,-2.9352913,2.516306,8.695741,0.06719518,-0.059864793,0.05497787
1764920636825,-2.920926,2.6264393,8.465898,0.05497787,-0.13683382,0.043982297
1764920636879,-2.861071,2.554613,8.480263,0.02321288,-0.057421334,0.05375614
1764920636931,-2.6839,2.4420857,8.736442,0.014660766,-0.05131268,0.04520403
1764920636983,-2.5689783,2.303222,8.7532015,0.02076942,-0.04886922,0.042760566
1764920637035,-2.6144683,2.4540567,8.599973,0.02687807,-0.0842994,0.02565634
1764920637088,-2.4229321,2.492364,8.456321,0.019547688,-0.06719518,0.021991149
1764920637143,-2.255338,2.6479871,8.3629465,-0.002443461,-0.042760566,0.008552114
1764920637195,-2.6671407,2.767697,8.508993,-0.028099801,0.028099801,0.004886922
1764920637246,-2.56419,2.5378537,8.616732,-0.04153884,0.015882496,-0.013439035
1764920637299,-2.7150247,2.4396915,8.750807,-0.04520403,0.013439035,-0.019547688
1764920637357,-2.6384103,2.4851813,8.822633,-0.039095376,-0.015882496,-0.021991149
1764920637408,-2.6719291,2.3080103,8.829816,-0.035430185,0.012217305,-0.02443461
1764920637459,-2.7868507,2.516306,8.707711,-0.037873644,0.037873644,-0.02076942
1764920637511,-2.7605145,2.4277205,8.798691,-0.04153884,0.019547688,-0.019547688
1764920637565,-2.7940333,2.4516625,8.683769,-0.05131268,0.021991149,-0.013439035
1764920637616,-2.695871,2.4492683,8.949526,-0.05497787,0.05131268,-0.012217305
1764920637669,-2.7246015,2.4061728,8.822633,-0.05131268,0.043982297,-0.013439035
1764920637724,-2.7006595,2.2457612,8.980651,-0.05131268,0.059864793,-0.019547688
1764920637776,-2.870648,1.9632454,9.064447,0.0012217305,-0.06352998,-0.034208454
1764920637831,-2.3391352,1.7908629,7.5225816,-0.018325957,-0.07941248,-0.043982297
1764920637884,-2.0566192,2.4947581,8.76996,-0.13316862,0.25534168,0.007330383
1764920637936,-2.2505496,1.8770541,9.313444,-0.14538592,0.5705481,0.0012217305
1764920637991,-2.0685902,1.9656396,9.193734,-0.13072516,0.035430185,-0.12950343
1764920638048,-3.8833952,2.468422,9.270349,-0.105068825,0.2687807,-0.13561209
1764920638100,-2.5091233,1.8555063,8.944737,-0.10629055,0.009773844,-0.13683382
1764920638153,-1.8411411,1.3311762,9.203311,-0.13561209,0.09773844,-0.15515977
1764920638205,-2.9400797,2.291251,8.798691,-0.037873644,-0.36896262,-0.28710666
1764920638259,-3.0310593,2.2026656,8.224083,-0.04642576,-0.45204028,-0.3005457
1764920638311,-2.719813,2.267309,8.688558,-0.089186326,-0.31642818,-0.28588495
1764920638365,-2.420538,1.70946,8.746018,-0.096516706,-0.22479841,-0.2883284
1764920638418,-2.0853498,1.4101849,9.411607,-0.034208454,-0.42638394,-0.32375857
1764920638470,-1.6448165,0.581791,8.145074,0.02565634,-0.6780604,-0.376293
1764920638522,-2.1523874,0.9768343,8.3629465,-0.07819075,-0.1563815,-0.40317106
1764920638575,-1.4053963,0.37588966,8.504205,-0.095294975,-0.33353242,-0.47525316
1764920638629,-3.25372,1.2186487,9.406818,-0.08307768,-0.24678956,-0.50579643
1764920638684,-2.2697031,0.90500826,7.089231,-0.057421334,-0.7440339,-0.46670106
1764920638737,-1.376666,0.35194764,9.993398,-0.14172074,-0.59498274,-0.35308012
1764920638789,-0.44771573,-0.7206547,13.8720045,-0.07574729,-0.5119051,-0.39461896
1764920638847,-4.4603977,0.7134721,11.671733,0.30176744,-0.13683382,-0.29443705
1764920638899,-3.9264908,1.946486,7.019799,0.24312437,-0.042760566,-0.2724459
1764920638952,-3.9719806,1.5825673,6.2752028,0.04886922,0.010995574,-0.14172074
1764920639004,-3.2872388,0.7757214,10.594342,-0.12583824,0.040317107,0.02443461
1764920639065,-2.8514943,0.7086837,10.627861,-0.07574729,-0.18325958,0.10629055
1764920639117,-1.7621324,-0.37828386,12.088325,0.019547688,-0.52778757,0.10751228
1764920639169,-1.4508862,0.4141969,11.221623,0.12095132,0.002443461,0.12339478
1764920639223,-3.6463692,0.39025488,12.299014,0.24190263,-0.6560693,0.16126843
1764920639278,-1.0582372,0.6512229,20.69548,0.3848451,-0.5729916,0.23823744
1764920639331,0.24420857,-1.2162545,42.066124,1.7140878,0.58032197,0.19914207
1764920639383,2.0829554,-3.406949,43.691788,2.8356364,0.68661255,0.21746802
1764920639435,0.5410896,-7.7572136,40.828323,3.898542,1.3170254,0.18448131
1764920639487,3.1124623,-23.19742,27.48783,5.5588737,0.5693264,0.2932153
1764920639540,1.103727,-30.95224,17.927782,6.024353,1.8594738,0.49846604
1764920639593,0.18914193,-33.327286,6.4380083,6.234491,1.4526376,0.8258898
1764920639648,1.6543933,-31.000124,-4.867412,5.9534926,0.6963864,1.1093313
1764920639701,-0.08619126,-29.034485,-6.1530986,5.644395,0.27855456,1.1667526
1764920639754,2.9496565,-26.999413,-9.3182335,5.3658404,-0.028099801,1.1349876
1764920639806,4.453215,-22.316355,-18.909405,4.5900416,-0.02076942,0.79901177
1764920639860,4.8602295,-19.428947,-30.70803,4.0500364,0.5876524,0.6914995
1764920639914,2.1571758,-13.472173,-39.286457,2.6364944,-0.5522222,0.43982297
1764920639967,3.5314474,-6.835446,-60.59964,-0.59742624,0.02687807,0.25778514
1764920640021,5.851429,-13.366828,-56.632446,-2.597399,-1.3414601,0.1001819
1764920640074,5.9160724,-27.861324,-50.443436,-4.411669,-0.68783426,0.09896017
1764920640128,6.7731967,-57.705048,-32.790985,-7.371922,-1.3096951,0.07819075
1764920640184,8.784326,-71.28975,-19.416975,-8.305324,-1.2449434,0.2443461
1764920640236,5.971139,-78.44363,-7.855376,-8.81112,-1.1972959,0.36285394
1764920640288,6.2943563,-78.115616,19.792866,-8.658404,-0.16982053,0.376293
1764920640340,6.208165,-61.90687,50.022057,-8.074417,-0.516792,0.31520647
1764920640393,-1.271321,-39.456444,65.24679,-6.4715066,0.09285152,0.10140363
1764920640449,0.02633622,-2.5737667,78.426865,-2.375044,-0.22113322,-0.04642576
1764920640503,3.514688,2.3439236,78.426865,-0.24556783,-0.05375614,-0.014660766
1764920640556,0.92176765,-1.067814,75.932106,1.6224581,0.49235737,-0.12217305
1764920640608,5.2720323,-32.589874,56.71864,5.248554,1.17897,0.019547688
1764920640663,1.733402,-48.065994,44.141895,6.591236,2.0598376,0.28710666
1764920640718,2.030283,-64.03053,30.806192,7.721337,2.0622811,0.8503244
1764920640771,5.78918,-72.84837,-0.51235914,8.469036,1.7983873,1.7397442
1764920640824,6.4164605,-67.76309,-9.291897,8.148942,0.9957104,1.9242256
1764920640877,5.932832,-60.326702,-14.669273,7.619933,0.5900958,1.894904
1764920640932,12.428301,-42.822693,-31.620222,6.1037655,0.38973203,1.3390167
1764920640987,16.95813,-30.32017,-47.7739,5.0115385,1.4966198,1.2742649
1764920641042,14.985309,-12.354081,-59.457603,1.6371188,1.3023647,0.12461651
1764920641095,14.817715,-9.449914,-62.110382,-0.8344419,-0.6365216,-0.4813618
1764920641151,11.84651,-17.106571,-57.606888,-2.3310618,-0.47525316,-0.6731735
1764920641204,11.9135475,-46.847343,-41.091682,-6.2845817,-1.7531832,-0.7806858
1764920641257,7.651869,-64.760765,-31.567549,-7.5551815,-1.4844025,-0.6743952
1764920641309,7.5561004,-75.08456,-20.072987,-8.440936,-2.057394,-0.41538838
1764920641363,10.000581,-78.44363,2.9233203,-9.023702,-2.0830505,0.4251622
1764920641416,8.180987,-78.44363,20.001162,-8.805012,-0.043982297,0.6536258
1764920641468,10.156203,-66.61388,43.133938,-8.089078,-1.7935003,0.4288274
1764920641521,8.8777,-19.120094,75.388626,-4.7781878,-0.5852089,0.2003638
1764920641573,5.2600613,-5.5018754,74.8619,-2.5900686,0.17592919,0.080634214
1764920641626,5.592855,-0.521936,74.62966,-0.7086037,0.5888741,-0.04642576
1764920641689,1.0965444,-6.694188,62.1846,2.7049112,0.8918633,-0.058643065
1764920641741,3.371036,-17.628508,55.909397,4.180762,1.142318,0.10873401
1764920641795,4.2401314,-31.854853,47.019726,5.4843483,1.4819591,0.23823744
1764920641849,3.6152446,-63.159042,25.143906,7.6993456,2.1917844,0.95905846
1764920641902,2.6001031,-69.32172,8.3150625,8.288219,1.5442673,1.4501941
1764920641954,5.9519854,-69.316925,-3.928885,8.339532,0.6914995,1.5919148
1764920642007,5.4563856,-57.518303,-18.327614,7.498982,-0.09773844,1.4306464
1764920642060,11.544841,-49.27267,-30.432697,6.8881164,0.27122417,1.2901474
1764920642112,11.461043,-38.175545,-42.731712,5.8191023,0.49968776,1.033584
1764920642167,14.195222,-12.593501,-63.601967,2.5399778,0.3359759,0.30909783
1764920642219,12.514492,-12.8448925,-65.328186,0.3885103,-0.37873647,-0.2602286
1764920642272,10.647015,-14.800955,-65.98899,-1.8362609,-0.50946164,-0.6450737
1764920642324,9.713276,-45.118732,-48.987762,-6.0255747,-1.8203784,-0.87964594
1764920642376,6.543353,-64.27713,-36.458904,-7.638259,-1.6969837,-0.73914695
1764920642429,7.9272017,-78.44363,-22.019472,-8.741482,-1.8350391,-0.42638394
1764920642486,8.1642275,-78.44363,8.161834,-9.418321,-1.8668042,0.2919936
1764920642538,6.4499793,-78.44363,29.42474,-9.06524,-1.0714576,0.41905355
1764920642590,10.419566,-58.44007,59.230156,-8.130616,-2.5961773,0.829555
1764920642642,10.139444,-12.047623,78.13477,-3.7849212,-1.105666,0.8014552
1764920642695,13.383588,0.7733272,75.34313,-1.672549,-0.7452556,0.6035349
1764920642747,15.452178,2.4157495,75.94408,0.21746802,0.09896017,0.33841935
1764920642802,16.761806,-16.060305,68.773445,3.8398988,0.80878556,-0.6401868
1764920642855,10.46745,-38.704666,56.79286,5.6969295,2.2137756,-0.6389651
1764920642907,8.4587145,-59.23973,40.517075,7.2827353,2.194228,-0.41172317
1764920642960,5.1690817,-78.44363,6.835446,8.985827,2.107485,0.35918877
1764920643012,5.0421886,-77.64396,-8.980651,9.044471,1.6737708,0.80756384
1764920643065,3.5553896,-69.50607,-17.719486,8.578992,0.94806284,1.001819
1764920643123,6.2847795,-46.97663,-35.53235,6.831917,-0.12705997,0.8332202
1764920643176,9.272743,-33.150116,-47.668556,5.5564303,-0.065973446,0.59131753
1764920643228,7.117962,-22.311565,-57.879826,3.875329,-0.019547688,0.32498032
1764920643291,2.2720973,-13.218388,-68.15095,-0.32620203,-0.2932153,-0.010995574
1764920643344,2.2002714,-19.05545,-63.058483,-2.6169467,-1.3255776,-0.02443461
1764920643406,1.4796166,-32.486923,-53.598995,-4.678006,-1.640784,0.13805555
1764920643458,2.2840683,-63.72407,-30.552408,-7.629707,-1.7959439,0.8136725
1764920643511,3.3854012,-74.73261,-18.830397,-8.431162,-1.0164797,1.2021828
1764920643564,9.186552,-78.44363,0.4213795,-8.935737,-1.8875736,1.6762142
1764920643618,8.061277,-78.44363,13.350069,-8.731708,-0.5644395,1.754405
1764920643670,14.750677,-68.90034,29.010542,-8.14039,-1.568702,1.8826867
1764920643723,21.801601,-19.86948,77.69424,-4.7073274,-0.38362336,1.1985176
1764920643776,23.872585,-4.7405195,78.426865,-2.3359487,-0.1600467,0.56199604
1764920643828,16.201563,0.038307227,71.73507,-0.29443705,0.95417154,0.002443461
1764920643885,7.383718,-5.475539,55.902214,2.8820622,1.0995574,-0.44104472
1764920643939,7.2951326,-13.069947,52.99326,3.9413025,1.1594223,-0.36651915
1764920643992,12.691663,-33.59544,51.889534,5.2644367,0.906524,-0.47891834
1764920644044,12.449849,-65.24439,25.301924,7.7396626,1.7140878,-0.3481932
1764920644095,10.338163,-73.26975,11.310209,8.475144,1.858252,-0.23945917
1764920644148,4.903325,-75.407776,-4.7979803,8.808677,2.2223277,0.18570304
1764920644205,4.4077253,-60.546967,-25.22052,7.8948226,1.1191051,0.6414085
1764920644258,3.2561142,-50.563145,-36.38229,7.0017376,1.0555751,0.8381071
1764920644311,3.9360676,-36.248215,-48.489765,5.6285124,0.065973446,0.79779
1764920644363,4.43885,-13.512875,-62.05292,2.035403,-0.46792278,0.41416663
1764920644415,3.4596214,-9.787497,-68.11743,-0.09285152,-0.5448918,0.2321288
1764920644472,0.5243302,-16.270994,-66.50853,-2.39337,-0.6010914,0.18081611
1764920644526,-0.34955344,-50.345272,-49.373226,-6.4495153,-0.21380283,0.5534439
1764920644581,3.8881836,-65.90998,-36.90901,-7.838623,-0.5656612,0.4569272
1764920644633,4.489128,-77.5865,-23.94441,-8.701164,-1.6358972,0.5009095
1764920644685,7.419631,-78.44363,3.1890767,-9.104336,-2.2272146,1.2791518
1764920644740,13.982138,-78.44363,16.733076,-8.728043,-0.54611355,1.7690657
1764920644793,17.398664,-70.609795,32.197224,-7.9082613,-1.9242256,1.4746287
1764920644845,15.212758,-27.724855,59.321136,-5.272989,-0.061086524,0.9077458
1764920644897,9.085996,-12.016499,67.41833,-3.068987,0.37018433,0.5131268
1764920644949,11.820174,-1.6903064,68.871605,-1.3341297,0.13194689,0.33353242
1764920645005,11.439496,-3.145981,61.025806,1.7482964,-0.02321288,-0.12583824
1764920645058,12.318168,-12.34211,55.966858,3.1569517,0.52656585,-0.30787608
1764920645111,11.745954,-21.84709,47.45547,4.3713517,0.906524,-0.51923543
1764920645164,10.860099,-47.905582,25.869349,6.6168923,2.0659463,-0.535118
1764920645216,9.054871,-51.954178,14.159308,7.1202455,1.1313224,-0.5729916
1764920645269,9.215282,-53.72828,2.6647465,7.4000216,1.0775663,-0.5742133
1764920645323,2.2457612,-50.38358,-9.701305,7.167893,1.8716911,0.0842994
1764920645376,3.9671922,-46.26316,-13.335704,6.7891564,1.0164797,0.30543262
1764920645428,3.9097314,-42.635944,-19.397821,6.3371162,1.2962561,0.49602258
1764920645481,5.0397944,-30.471004,-37.7398,4.9516735,0.90285885,0.593761
1764920645535,4.7141833,-19.122488,-50.74032,3.7641516,0.906524,0.6377433
1764920645588,9.495404,-12.943054,-57.137623,2.2638667,-1.2217305,0.24190263
1764920645644,2.6623523,-10.412383,-68.859634,-1.772731,-1.391551,-0.18081611
1764920645696,5.9663506,-24.463953,-61.583656,-4.075693,-1.9034561,-0.043982297
1764920645748,4.747702,-42.655098,-47.2376,-5.997475,-1.3329079,0.1001819
1764920645801,2.669535,-75.024704,-22.476765,-8.410393,-0.8051204,0.6536258
1764920645853,8.401254,-78.44363,-6.739678,-8.866098,-1.9437732,0.91996306
1764920645909,9.655815,-78.44363,3.6966474,-8.86732,0.7110472,1.0311406
1764920645962,1.3670892,-63.783928,40.488346,-8.139169,0.2919936,0.3933972
1764920646014,2.80361,-37.58418,62.7209,-6.6743135,-2.1087067,0.24190263
1764920646067,5.3725886,-18.562246,71.04554,-4.646241,-0.9456194,0.6719518
1764920646121,6.9264255,2.8921957,71.08145,-0.12095132,0.087964594,0.5839872
1764920646175,11.010934,0.6943185,65.07201,1.6249015,-0.21868975,0.33964106
1764920646228,11.312603,-8.674192,57.23818,3.1801646,0.7305948,0.13439035
1764920646281,9.524135,-28.8214,33.849224,5.336519,1.1716396,-0.10873401
1764920646333,6.679823,-37.172375,19.706675,6.037792,1.5222762,-0.032986723
1764920646387,6.6654577,-39.968803,8.494628,6.399424,1.677436,0.17470746
1764920646440,4.4484267,-40.711006,-3.7565024,6.6511006,-0.66950834,0.0720821
1764920646494,6.847417,-39.60249,-6.71813,6.447072,0.015882496,-0.16249016
1764920646547,3.6272156,-36.334404,-10.996569,5.979149,1.0910053,-0.24312437
1764920646599,-2.171541,-28.608316,-28.14863,5.194798,-0.47158796,-0.30787608
1764920646651,1.1971009,-20.2741,-40.933666,4.4409904,0.017104227,-0.23090707
1764920646705,-1.9297266,-11.104307,-51.5328,3.1569517,0.35063666,-0.11728613
1764920646759,-3.3877954,-4.4125137,-64.27235,-0.5656612,0.16249016,-0.019547688
1764920646812,-2.4396915,-13.000515,-58.796806,-2.5802948,-1.5858061,0.04886922
1764920646864,-5.5377884,-27.442339,-49.02128,-4.2797217,-1.4049901,0.41172317
1764920646919,1.2210429,-53.8432,-30.569168,-6.8416905,-2.3493876,1.4086553
1764920646972,5.650316,-65.481415,-17.331627,-7.5136423,-2.5411994,1.9596558
1764920647024,6.6630635,-70.94738,-6.2345014,-7.7726493,-1.4110987,2.324953
1764920647076,10.5680065,-70.35601,2.7222073,-7.784867,-1.5076154,2.4947736
1764920647127,17.884687,-50.536808,40.557777,-7.2008796,-0.46792278,1.9804251
1764920647179,22.965183,-31.478964,66.78386,-5.893628,-0.43249258,1.4330899
1764920647232,17.422606,-9.928755,74.078995,-3.6957347,0.2125811,0.8185594
1764920647283,9.200917,4.781221,65.25636,0.6426302,1.2779301,-0.172264
1764920647335,7.6351094,2.7509377,55.423374,1.9449949,0.8772025,-0.38362336
1764920647387,8.300697,-4.534618,48.875233,3.1655037,1.382999,-0.44593164
1764920647440,7.2065473,-29.16377,34.27539,5.2790976,2.0463986,-0.52534413
1764920647494,2.7006595,-37.39743,20.147207,6.0402355,2.9064968,-0.062308256
1764920647546,1.8171991,-40.11006,8.719683,6.4030895,2.6279423,0.52534413
1764920647598,2.5809495,-37.53869,-7.1275387,6.304129,1.813048,1.3170254
1764920647651,3.9839516,-33.58586,-12.79222,6.0903263,0.16615535,1.3487904
1764920647704,5.4085016,-28.08638,-20.214245,5.5771995,1.0934488,1.486846
1764920647760,6.2488666,-17.721882,-26.537333,3.8716638,1.9682078,1.237613
1764920647812,8.784326,-12.689269,-37.090973,3.055548,0.51068336,1.1276573
1764920647865,8.180987,-8.331821,-41.51306,2.01219,-0.4166101,0.7464773
1764920647919,7.776367,-2.1667526,-48.463432,-0.41783184,-1.1728612,0.3567453
1764920647972,8.075643,-6.5026517,-45.587994,-1.9743165,-1.4514158,0.16126843
1764920648027,2.5187001,-17.621325,-44.594402,-3.3756413,-1.704314,0.07452556
1764920648081,5.0876784,-37.354336,-33.001675,-5.784894,-1.8545868,0.32986724
1764920648135,3.1172507,-49.138596,-24.983494,-6.7378435,-1.2754866,0.52412236
1764920648189,0.9744401,-58.95722,-14.930242,-7.4598866,-1.2168436,0.7367035
1764920648247,5.058948,-66.43431,7.398083,-8.122065,-0.17592919,1.3561208
1764920648299,9.303867,-62.93638,28.124687,-7.9583526,-1.8716911,1.3353515
1764920648352,14.55914,-46.449905,63.77914,-7.121467,0.06719518,1.7116444
1764920648404,16.091429,-6.7731967,74.41179,-2.3652701,-0.030543262,0.6963864
1764920648456,12.050017,1.958457,68.38798,-0.30909783,0.73792523,0.376293
1764920648513,9.277532,3.181894,60.592457,1.7055358,1.0177015,0.08674286
1764920648565,8.178593,-11.856087,46.756367,4.030489,1.6224581,0.009773844
1764920648619,10.412383,-25.368961,39.741356,5.1385984,1.4587462,-0.013439035
1764920648671,7.5441294,-38.24019,30.035261,6.111096,1.9633209,-0.007330383
1764920648724,3.3303347,-48.077965,4.7884035,7.194771,1.3561208,0.5852089
1764920648782,3.3734303,-47.158592,-3.6750996,7.1544538,0.73914695,0.675617
1764920648839,4.333505,-40.567352,-17.250223,6.459289,0.8368854,0.88453287
1764920648893,6.2464724,-33.277008,-24.447193,5.865528,-0.18448131,0.68294734
1764920648948,7.603985,-26.601974,-33.60741,5.1007247,-0.095294975,0.43127087
1764920649001,5.6670756,-11.336545,-51.26704,2.5827382,-0.33108896,-0.12950343
1764920649053,6.9767036,-7.050924,-60.807934,0.91507614,0.11484267,-0.30176744
1764920649105,-1.067814,-9.92636,-62.778362,-1.0409144,-0.15760323,-0.42271876
1764920649159,3.5529952,-30.21722,-48.745945,-4.805066,-2.64749,0.095294975
1764920649213,1.0510546,-45.645454,-39.3918,-6.2650337,-1.677436,0.47403142
1764920649266,1.8411411,-59.47197,-29.101522,-7.3975782,-1.6896533,0.79045963
1764920649319,6.8905125,-78.16829,-3.8762126,-8.4042845,-1.3487904,1.7556267
1764920649371,11.451467,-78.44363,9.188946,-8.36641,-2.3102922,2.0378466
1764920649424,16.196775,-74.61769,26.824636,-7.9400263,-0.80756384,2.361605
1764920649484,22.199038,-29.364883,65.028915,-5.381723,-0.8332202,1.6713274
1764920649537,19.783289,-10.864887,67.94744,-3.517362,0.3371976,1.0751228
1764920649591,14.726735,0.5770026,66.05842,-1.8277088,0.4642576,0.5143485
1764920649649,9.179369,1.8842367,54.784122,1.0152581,0.44348818,-0.13683382
1764920649701,8.947132,-4.795586,47.34055,2.4055874,1.2131784,-0.19547687
1764920649754,7.117962,-11.020511,40.256107,3.1422908,0.9969321,-0.2761111
1764920649807,6.7923503,-28.196514,27.284323,5.2253413,0.86742866,-0.50946164
1764920649860,6.55293,-35.3456,23.18066,5.8594193,1.2363913,-0.40317106
1764920649912,6.9479733,-41.036617,15.832856,6.4812803,1.205848,-0.3933972
1764920649968,4.7668557,-44.63271,-6.8426285,6.9516463,0.6365216,-0.44593164
1764920650021,0.7158663,-39.695866,-12.595895,6.658431,0.65484756,-0.5900958
1764920650073,-0.08619126,-33.48291,-19.998766,6.146526,0.73426,-0.38728857
1764920650126,1.9752164,-23.319525,-31.160536,4.7696357,0.8698721,-0.35063666
1764920650181,0.4333505,-15.990873,-36.554672,3.9339721,1.5027285,-0.22113322
1764920650237,-3.2225955,-5.5282116,-51.161697,1.3243558,-0.08307768,-0.1563815
1764920650288,-1.0702082,-5.4324436,-53.44337,-0.36163223,-0.30665436,-0.012217305
1764920650339,-5.2480903,-11.858481,-54.640472,-2.0610592,-0.4129449,0.21624629
1764920650391,-2.8921957,-20.977995,-53.17522,-3.7274997,-1.5015068,0.54244834
1764920650445,-0.48841715,-54.911015,-41.493908,-6.668205,-2.2834144,1.5198327
1764920650499,3.9336734,-71.47171,-29.544449,-7.8044143,-3.0396655,2.1661282
1764920650551,7.3525934,-78.44363,-11.71004,-8.409171,-2.6267207,2.8722885
1764920650603,19.378668,-78.194626,21.844696,-8.067086,-1.102001,3.1899383
1764920650656,25.768793,-59.708996,46.27513,-7.3010616,-1.518611,2.8625145
1764920650708,32.829292,-33.85401,62.086437,-5.6541686,-1.3121386,2.4141395
1764920650764,30.418333,-2.0398598,75.12526,-1.6200147,0.30909783,0.6609562
1764920650818,26.266787,4.6591167,71.023994,0.25289822,0.8735373,-0.057421334
1764920650870,21.495142,-1.4915876,61.686607,2.0683897,1.0983357,-0.64996064
1764920650923,15.397111,-21.732168,48.156975,4.638911,1.1068878,-1.1142182
1764920650978,16.90067,-37.275326,36.11653,5.7946677,1.6884315,-1.2449434
1764920651032,7.872135,-50.852844,21.93807,6.8832297,1.8411479,-1.2009611
1764920651085,5.619191,-57.918133,-0.19632454,7.59672,1.0751228,-0.81122905
1764920651138,4.1802764,-55.72983,-8.185776,7.4501123,0.8527679,-0.6768387
1764920651190,2.870648,-51.64293,-14.520833,7.127576,1.2974777,-0.44715336
1764920651244,3.5984852,-37.68713,-31.012094,6.007249,1.3353515,-0.1282817
1764920651300,0.9744401,-30.018501,-41.7453,5.108055,2.1184807,0.1600467
1764920651355,3.1292217,-20.994755,-47.965435,3.8362339,1.9889772,0.3567453
1764920651408,4.5418005,-7.2065473,-56.574986,0.5021312,-0.73792523,0.2761111
1764920651461,1.8124107,-9.588778,-59.093685,-1.4404203,-0.204029,0.2883284
1764920651519,0.7326257,-20.503942,-56.75934,-3.4232888,-1.391551,0.35185838
1764920651571,4.939238,-53.01481,-42.351032,-6.794043,-1.5980235,0.8405506
1764920651624,5.451597,-69.09905,-29.41995,-7.9779,-1.1301007,1.0616838
1764920651677,8.75799,-78.44363,-7.666234,-9.042027,-1.6236799,1.3548992
1764920651730,7.6135616,-78.44363,3.0813377,-9.09334,-1.577254,1.5650368
1764920651784,18.227058,-78.44363,20.36508,-8.789129,-2.9590313,2.1197023
1764920651841,26.312277,-43.914448,64.89484,-6.387207,-1.8863518,1.8655825
1764920651893,26.22848,-19.515139,76.38222,-4.320039,-0.18936823,1.4086553
1764920651949,27.48783,-5.085284,78.42447,-2.0964894,0.21991149,0.7086037
1764920652002,12.9167185,-2.552219,63.72886,1.8216002,0.5864306,-0.24312437
1764920652054,14.300567,-9.495404,53.26141,3.2265902,0.6450737,-0.36896262
1764920652107,15.363592,-19.491196,45.8346,4.321261,0.4605924,-0.5546656
1764920652159,17.389088,-43.90966,23.39135,6.234491,0.71593404,-1.4440855
1764920652212,14.384364,-49.267883,14.494497,6.745174,0.43371433,-1.8154916
1764920652265,10.376471,-53.8432,3.7445314,7.1153584,1.1716396,-2.008525
1764920652320,3.86903,-53.01481,-9.900024,7.029837,1.0067059,-1.9462167
1764920652372,1.3694834,-49.009308,-14.975732,6.730513,1.2913691,-1.7373008
1764920652425,-1.4700398,-43.34223,-23.666683,6.3884287,1.5027285,-1.4147639
1764920652478,-4.8338933,-24.24608,-47.754745,4.7122145,1.0201449,-0.8368854
1764920652532,-7.6973586,-15.284584,-57.35789,3.1972687,0.71959925,-0.48991394
1764920652585,-9.52174,-7.836222,-62.795124,1.2412782,0.8503244,-0.057421334
1764920652638,-7.917625,-19.673155,-59.299587,-2.8441887,-1.4184291,0.6792821
1764920652691,-4.280833,-32.436646,-52.698772,-4.6450195,-1.9963076,1.1960741
1764920652743,-2.6599581,-50.220776,-44.443565,-6.1575217,-2.0732768,1.7654005
1764920652796,1.8171991,-78.44363,-22.340296,-8.29555,-2.3603833,2.819754
1764920652849,6.634333,-78.44363,-9.344569,-8.731708,-1.3023647,3.4599407
1764920652902,14.372393,-78.44363,5.5497594,-8.825781,-1.4575244,3.5662313
1764920652957,31.692047,-61.183823,55.861515,-7.2998395,-0.9761627,3.2033772
1764920653009,34.584244,-31.96738,67.0161,-5.379279,-1.0800097,2.406809
1764920653062,29.94907,-8.796297,62.972294,-3.2363641,0.27122417,1.5809193
1764920653116,15.116989,-0.40701428,39.837124,-0.5510005,0.68539083,0.2687807
1764920653169,11.233594,1.2234371,26.202143,0.172264,0.9272934,0.064751714
1764920653222,7.587225,1.103727,16.342821,0.5143485,1.1191051,-0.04153884
1764920653277,2.456451,1.0510546,6.5744777,0.5375614,1.0213667,-0.062308256
1764920653331,3.1364043,1.541866,2.9161377,0.4007276,0.30909783,-0.089186326
1764920653385,0.90500826,2.0973208,3.0095115,0.16249016,-0.14660765,-0.06352998
1764920653438,2.8443117,-0.31124622,8.207323,-0.20891592,-0.37751472,0.06841691
1764920653490,1.0295067,-0.5434838,9.435549,-0.1966986,0.7501425,0.081855945
1764920653543,-0.4357447,0.9672575,9.555259,-0.1600467,0.83077675,0.1160644
1764920653595,-0.23223756,0.79966336,10.014946,-0.10751228,0.9468411,0.16737708
1764920653647,-0.5386954,1.1994951,10.986992,-0.0720821,1.0800097,0.21991149
1764920653703,-0.79966336,1.4508862,11.087548,0.015882496,0.87598073,0.23945917
1764920653758,-0.10534488,1.0175357,11.808203,0.17592919,0.34330627,0.32498032
1764920653810,-0.33279404,1.1444284,11.717223,0.2406809,0.3652974,0.3200934
1764920653863,-0.06464344,1.2880806,11.616667,0.32742378,0.16615535,0.3042109
1764920653919,0.25378537,2.1499932,9.691729,0.48502702,-0.22113322,0.26389378
1764920653977,0.7350199,1.8650831,9.136273,0.5119051,-0.12583824,0.23823744
1764920654029,0.46447513,2.4133554,8.446744,0.54367006,-0.4092797,0.18448131
1764920654083,1.6783354,2.468422,7.773973,0.4361578,-0.062308256,0.09285152
1764920654136,0.9888053,2.4947581,8.1881695,0.3481932,-0.36651915,0
1764920654188,-0.12689269,2.408567,8.76996,0.3005457,-0.2406809,-0.05131268
1764920654241,0.3878607,2.6001031,7.819463,0.23823744,-0.112399206,0.064751714
1764920654295,-0.062249243,2.7605145,8.058883,0.18570304,-0.05131268,0.089186326
1764920654348,0.25857377,3.2585084,7.735666,0.12705997,-0.02443461,0.11362094
1764920654402,1.7190368,3.241749,7.2185183,0.057421334,-0.32498032,0.10262536
1764920654456,1.5729905,2.870648,8.568848,-0.004886922,-0.112399206,0.119729586
1764920654509,2.6360161,2.695871,8.535329,-0.012217305,-0.064751714,0.08307768
1764920654561,2.243367,3.1747115,9.229648,-0.07819075,0.12217305,-0.0061086523
1764920654613,1.7357962,2.9879637,8.908825,-0.042760566,-0.008552114,-0.0720821
1764920654666,1.1228806,2.755726,8.310274,-0.03176499,0.18325958,-0.06841691
1764920654721,1.0582372,2.7126305,7.8793178,-0.11484267,0.13927728,-0.095294975
1764920654778,1.0845734,2.372654,8.212111,-0.17837265,0.18936823,-0.10140363
1764920654832,1.2425907,2.0374656,8.461109,-0.19914207,0.13805555,-0.1160644
1764920654885,0.79008657,1.3359646,8.954314,-0.23823744,0.1001819,-0.095294975
1764920654938,-0.29209262,0.9576807,9.011775,-0.21624629,-0.20525073,-0.04153884
1764920654996,0.79008657,0.4213795,8.520964,-0.19792034,-0.87109387,0.22235495
1764920655048,1.5729905,-0.31603462,8.360553,-0.2565634,-0.89919364,0.33353242
1764920655103,1.922544,-0.30645782,8.470686,-0.28344148,-0.84421575,0.408058
1764920655158,2.566584,0.40940848,8.066066,-0.36285394,-0.5900958,0.48624873
1764920655210,3.6032736,-0.46926352,8.578424,-0.44348818,-0.64996064,0.45204028
1764920655263,3.5194764,-0.40462008,9.722853,-0.46670106,-0.6010914,0.37995818
1764920655315,3.016694,-0.61770403,9.698911,-0.4728097,-0.017104227,0.34574974
1764920655367,2.5234885,-0.50996494,9.935937,-0.47158796,0.6792821,0.38362336
1764920655423,1.9800048,-0.5626374,10.048465,-0.41538838,0.42271876,0.30176744
1764920655476,1.1731589,0.50038815,9.983821,-0.4166101,1.4587462,0.27000242
1764920655529,1.6639702,0.6464345,9.603143,-0.3848451,1.047023,0.12217305
1764920655582,0.2657564,1.2617443,10.287885,-0.41050145,1.6297885,0.09773844
1764920655636,1.1492168,1.5753847,10.3932295,-0.3371976,0.7611381,-0.05375614
1764920655689,1.3263878,1.7812861,11.168951,-0.35796702,0.9272934,-0.07574729
1764920655742,0.545878,0.50038815,12.356475,-0.30176744,1.0201449,-0.10995574
1764920655796,-2.5713725,0.2873042,12.787432,0.0061086523,0.44837508,-0.02565634
1764920655848,-2.3343468,-1.3359646,11.927913,0.1282817,0.17348573,0.058643065
1764920655901,-3.4380736,-0.23463176,10.19451,0.20891592,0.38362336,0.2321288
1764920655955,-0.24420857,0.031124622,7.469909,0.22479841,-0.5864306,0.45570546
1764920656009,0.9576807,0.10295067,6.3446345,0.10751228,-0.3848451,0.4007276
1764920656061,13.27106,0.8834604,15.885529,0.034208454,0.030543262,0.3005457
1764920656115,-1.4891934,-0.9552865,8.432379,0.22968534,0.784351,-0.1160644
1764920656168,-4.2880154,-1.4772224,9.581595,0.33841935,0.05009095,-0.05497787
1764920656223,2.3918076,0.7781156,7.359776,0.32742378,-1.028697,-0.05009095
1764920656278,0.29927522,1.5011644,9.320627,0.14905111,-0.14660765,-0.04642576
1764920656336,-0.39504328,0.29448682,9.653421,0.08674286,0.14049901,-0.05131268
1764920656388,-0.90740246,0.8858546,9.085996,0.062308256,0.089186326,-0.02565634
1764920656439,-0.3184288,0.19871874,9.296685,-0.015882496,0.02321288,0.02321288
1764920656492,0.25857377,-0.035913024,9.28232,-0.034208454,-0.029321533,0.015882496
1764920656543,-0.5530606,-0.0047884034,9.569624,-0.039095376,0.07452556,0.018325957
1764920656595,-0.14604631,0.19153613,9.739613,-0.04642576,0.0012217305,0.035430185
1764920656646,-0.6655881,-0.12210429,9.765948,-0.04642576,0.034208454,0.032986723
1764920656698,-0.24420857,0.007182605,9.713276,-0.028099801,-0.118507855,0.02565634
1764920656751,-0.2657564,0.40462008,8.0924015,0.013439035,-0.19547687,0.014660766
1764920656802,0.47405192,-0.16280572,9.672575,-0.04642576,0.015882496,0.019547688
1764920656854,0.6631939,0.04070143,11.729194,0.0012217305,-0.03176499,-0.015882496
