t,ax,ay,az,gx,gy,gz
1764921336068,1.1563994,0.32321724,9.14585,0.26267207,-0.45570546,-0.3494149
1764921336119,1.2401965,0.4333505,9.689334,-0.017104227,-0.0036651916,0.019547688
1764921336170,1.472434,0.37110126,9.394848,0.008552114,0.015882496,0.029321533
1764921336221,1.5753847,0.25139117,9.763555,0.009773844,-0.034208454,0.021991149
1764921336272,1.436521,0.38307226,9.528923,0.013439035,0.018325957,0.013439035
1764921336324,2.0638018,0.35434186,9.241618,0,0.31764993,0.0036651916
1764921336375,0.7445967,0.9792285,9.859323,0.02321288,0.40317106,-0.028099801
1764921336427,1.4891934,2.4468741,7.8410106,-0.0012217305,0.52412236,0
1764921336478,-2.0733786,8.760384,6.114791,-0.27855456,1.4123205,0.14049901
1764921336532,-1.9776106,4.8099513,8.664616,-0.8344419,0.6462954,0.2846632
1764921336584,1.1228806,3.5553896,11.623849,-0.81245077,-1.0641272,0.35430184
1764921336636,-0.6560113,1.5227122,11.312603,-0.77091193,-0.31398472,0.45081854
1764921336688,1.1133038,-1.6998832,10.9822035,-0.5448918,-0.49602258,0.34208453
1764921336740,1.42455,-0.59376204,11.159374,-0.36285394,-1.3622295,0.13927728
1764921336795,2.5354595,-3.620033,11.314998,-0.172264,0.74281216,0.035430185
1764921336849,2.2481554,-4.8243165,9.622296,-0.02321288,1.894904,-0.28710666
1764921336901,-5.2026005,-5.116409,9.088389,-0.037873644,5.1984634,-0.037873644
1764921336955,1.0223241,-1.0510546,5.6239796,0.1282817,-0.88331115,-0.28099802
1764921337008,0.36870706,-5.6766524,10.144233,0.19792034,0.5558874,-0.034208454
1764921337063,1.2545617,-4.4005427,7.9583263,0.2883284,-1.1924089,-0.2321288
1764921337118,0.01436521,-1.3623008,7.28795,0.20525073,0.7819075,-0.14172074
1764921337171,-0.2896984,-2.801216,7.4244194,-0.007330383,-0.03176499,-0.23335053
1764921337225,-1.9752164,-1.6065093,7.615956,-0.112399206,0.7770206,-0.22724187
1764921337283,-2.4660277,-1.448492,9.064447,-0.20891592,0.103847094,-0.2968805
1764921337335,-2.4277205,-2.0757728,8.944737,-0.1685988,-0.47403142,-0.28344148
1764921337388,-1.958457,-2.3223755,8.647857,-0.18448131,-0.3811799,-0.22724187
1764921337445,-1.9919758,-2.3678656,9.239224,-0.2724459,-0.4813618,-0.16493362
1764921337497,-2.171541,-2.1499932,9.174581,-0.26389378,-0.103847094,-0.09407325
1764921337551,-1.8195933,-2.2577322,9.136273,-0.2565634,-0.4361578,-0.08674286
1764921337603,-1.115698,-2.315193,9.682152,-0.267559,0.014660766,-0.004886922
1764921337656,-1.0893618,-2.3247697,10.785878,-0.21746802,-0.080634214,-0.009773844
1764921337708,-0.37349546,-2.7748797,10.508151,-0.14538592,0.16982053,0.008552114
1764921337763,-0.8523358,-2.657564,10.201694,-0.017104227,-0.06963864,-0.039095376
1764921337818,-1.1779473,-2.4277205,10.146626,0.02443461,0.09407325,-0.035430185
1764921337871,-1.1085154,-2.4875755,9.710882,0.064751714,-0.10629055,-0.056199603
1764921337923,-1.1444284,-1.9632454,8.983045,0.036651913,-0.035430185,-0.039095376
1764921337976,-0.78769237,-2.2122424,9.617508,0.0061086523,-0.05497787,-0.037873644
1764921338036,-0.6655881,-3.0550013,9.25359,0.043982297,0.60231316,-0.0036651916
1764921338089,-1.8698715,-1.9393034,9.890448,-0.010995574,0.3652974,-0.021991149
1764921338142,-2.315193,-1.7812861,10.429143,0.014660766,0.33475417,-0.002443461
1764921338200,-1.9536686,-2.1452048,10.857705,0.15271631,0.118507855,0.004886922
1764921338252,-1.2258313,-2.3104045,10.5680065,0.2125811,0.20769419,-0.0061086523
1764921338305,-2.6479871,-2.2864625,10.919954,0.27366763,0.35185838,-0.018325957
1764921338359,-2.861071,-2.7269957,8.813056,0.39461896,0.23335053,-0.034208454
1764921338412,-3.2154129,-3.107674,8.3868885,0.36896262,-0.02443461,-0.036651913
1764921338465,-3.2824504,-3.2585084,8.312668,0.31520647,0.43371433,0.015882496
1764921338521,-3.1364043,-1.7549498,7.991845,0.34330627,-0.042760566,0.073303826
1764921338573,-3.0382419,-0.6919243,7.2089415,0.33108896,-0.15149458,0.11362094
1764921338626,-2.3319526,-0.45489833,6.9838862,0.26267207,-0.21868975,0.15393804
1764921338684,-1.1659763,-0.93852705,7.8865004,0.07086037,-0.1001819,0.20769419
1764921338737,-1.13964,-1.0702082,7.9870567,0.008552114,0.028099801,0.1685988
1764921338790,-1.2785037,-0.8619126,7.97748,-0.040317107,-0.119729586,0.09773844
1764921338843,-1.5155296,-0.9792285,8.157045,-0.1441642,-0.07574729,0.02321288
1764921338904,-1.2425907,-1.3000516,8.3821,-0.17959438,-0.13316862,-0.008552114
1764921338957,-1.4628572,-1.1755531,8.564059,-0.22479841,-0.08552113,-0.015882496
1764921339010,-1.0390835,-1.5873557,8.492233,-0.24923302,-0.25534168,-0.059864793
1764921339063,-1.4269443,-1.5227122,9.263166,-0.33108896,0.19792034,-0.058643065
1764921339122,-1.055843,-2.7365725,9.818622,-0.27488935,0.14538592,-0.07452556
1764921339175,-2.5091233,-1.8076223,10.443508,-0.23701571,0.4166101,-0.1001819
1764921339227,-1.5370775,-1.7621324,10.1226845,-0.19058995,0.19058995,-0.14172074
1764921339284,-2.5498247,-2.267309,10.058042,-0.09773844,0.18081611,-0.1563815
1764921339337,-2.5594015,-2.1308396,9.931149,-0.062308256,0.22357668,-0.14538592
1764921339390,-2.9831753,-2.243367,10.079589,-0.02321288,0.1563815,-0.14294247
1764921339443,-3.5194764,-1.8171991,9.452309,0.032986723,0.38973203,-0.07086037
1764921339496,-3.2106245,-1.4628572,10.601525,0.05375614,0.10140363,-0.02687807
1764921339549,-2.7102363,-1.3311762,11.446678,0.11362094,0.21013765,0.013439035
1764921339603,-2.1260512,-1.5298948,11.824963,0.312763,0.05375614,0.0720821
1764921339656,-2.408567,-2.0159178,10.852917,0.42638394,0.1881465,0.09285152
1764921339709,-1.5658079,-1.5251064,10.3932295,0.48258355,-0.030543262,0.040317107
1764921339765,-2.207454,-1.4796166,9.581595,0.58276546,0.2602286,-0.17837265
1764921339818,-7.2328835,-2.3295584,13.730747,0.5815437,0.8576548,-0.21135938
1764921339871,-10.220847,-2.1547816,12.758701,0.66706485,-0.24801129,-0.18203785
1764921339923,-0.011971008,-2.492364,10.359711,0.8210029,0.8002335,-0.029321533
1764921339976,-8.614338,0.7038953,6.873753,0.9089675,0.77213365,-0.19058995
1764921340029,-7.1131735,0.02873042,10.941502,0.8038987,0.19425514,-0.014660766
1764921340085,-6.8282633,1.0749966,7.007828,0.90285885,0.80878556,0.12950343
1764921340139,-6.9479733,2.5689783,5.9783216,0.79168135,0.52656585,0.25289822
1764921340192,-3.6224272,1.2952632,6.0046577,0.65240407,-0.13805555,0.24801129
1764921340244,-5.446809,0.81163436,7.338228,0.54611355,-0.49480084,0.31398472
1764921340299,-4.1635165,0.031124622,5.45878,0.47769663,-0.30665436,0.312763
1764921340357,-1.7286136,0.51954174,5.3606176,0.36651915,-1.9230038,0.13072516
1764921340409,0.5482722,3.217807,6.157887,0.25778514,-0.4092797,0.09285152
1764921340461,0.031124622,3.8546648,8.611943,0.23457226,-0.13439035,0.040317107
1764921340523,-6.3446345,1.7597382,12.26789,0.17470746,0.71837753,-0.06963864
1764921340576,-4.146757,1.2545617,13.326127,0.4728097,-1.1129965,-0.20769419
1764921340628,-0.6536171,4.1299977,7.589619,0.55955255,-1.5161675,-0.33964106
1764921340681,-8.781932,3.9815574,7.8529816,0.10140363,0.37140608,-0.16493362
1764921340736,-6.1650696,2.3199813,8.35337,0.10995574,-0.33108896,0.02076942
1764921340789,-3.4141316,3.7373488,7.2424603,0.105068825,-0.6585127,0.118507855
1764921340841,-3.2273839,3.3063924,6.385336,0.034208454,-1.0885619,0.047647487
1764921340894,1.946486,4.1012673,5.3127337,-0.09773844,-0.9053023,0.07574729
1764921340947,-2.980781,3.454833,11.056423,-0.09773844,-1.9388863,-0.034208454
1764921341001,2.5761611,2.2170308,13.192051,0.22113322,-0.14294247,0.32375857
1764921341055,2.542642,2.791639,9.471462,0.35430184,-0.3481932,0.14294247
1764921341107,4.4196963,3.6152446,6.10282,0.35063666,-0.9272934,-0.065973446
1764921341160,-4.012682,4.378995,16.354792,0.28588495,0.54367006,-0.12339478
1764921341213,-6.3446345,4.462792,26.489449,0.5839872,0.28710666,0.012217305
1764921341271,-3.2513258,4.0342298,32.273838,1.2925909,-0.11484267,0.11484267
1764921341323,-1.9201498,2.1428106,24.847025,2.769663,0.25411993,0.28955013
1764921341376,-0.62728083,-0.50757074,19.177555,3.1887167,0.21380283,0.35308012
1764921341453,3.4117374,-7.1514807,13.831304,3.875329,0.21502456,0.21868975
1764921341505,2.2218192,-8.693346,10.225636,4.1502185,0.24312437,0.10995574
1764921341560,1.6065093,-10.077195,1.1109096,4.3346996,0.45081854,0.036651913
1764921341612,1.4269443,-10.208876,-1.4628572,4.2736135,0.5326745,0.030543262
1764921341665,0.7469909,-10.759542,-3.4380736,4.192979,0.61086524,0.09040806
1764921341719,0.8738836,-9.775525,-9.203311,3.8386772,0.34697145,0.10140363
1764921341772,1.4772224,-9.255983,-10.388441,3.5430183,0.50579643,0.095294975
1764921341825,1.2761095,-8.954314,-13.144167,3.2693508,0.39095375,0.09896017
1764921341876,0.7038953,-6.727707,-21.952435,2.4727826,0.5925393,0.10873401
1764921341929,3.1124623,-5.1762643,-30.344112,1.9156734,-0.032986723,0.096516706
1764921341982,5.363012,-2.5330653,-37.857117,1.0360274,0.08552113,0.013439035
1764921342040,2.231396,-5.3079453,-45.741222,-1.3793337,-0.70616025,-0.22113322
1764921342092,1.1587936,-12.148179,-44.204147,-2.7892108,-0.7012733,-0.20891592
1764921342144,1.6519991,-19.974825,-41.93923,-4.1563272,-1.3707817,-0.13072516
1764921342197,1.8722657,-45.245625,-26.101587,-6.5448103,-1.9437732,0.4886922
1764921342249,4.402937,-55.274933,-16.18241,-7.293731,-2.324953,0.9822713
1764921342302,5.583278,-62.143898,-7.7787614,-7.727445,-2.1649065,1.4831808
1764921342360,13.769054,-59.613228,19.184738,-7.46233,-1.2046263,1.8509218
1764921342412,12.703634,-46.330196,39.62404,-6.7573915,-0.9456194,1.7287487
1764921342465,14.839262,-29.37925,52.80412,-5.445253,-0.7281514,1.4856243
1764921342517,19.481619,0,69.029625,-2.2418754,-0.37751472,0.42149702
1764921342573,15.938201,6.1650696,70.30573,-0.39706242,0.38728857,0.07696902
1764921342626,14.609419,-0.7206547,65.7759,1.2583824,-0.06352998,-0.30665436
1764921342679,17.171215,-24.655489,52.42823,4.7708573,1.359786,-0.7684685
1764921342732,10.34774,-39.24815,39.267303,6.1001005,1.491733,-0.9309586
1764921342795,5.985504,-53.907845,13.850457,7.562512,1.0922271,-0.5448918
1764921342848,5.7843914,-58.272476,1.8171991,7.7628756,1.5112807,-0.36651915
1764921342900,3.1172507,-56.424152,-6.361394,7.678576,1.2363913,-0.13316862
1764921342962,2.4181437,-44.781147,-16.053122,6.739065,1.4636332,0.6743952
1764921343015,6.691794,-38.81001,-22.412123,6.1563,0.57787853,0.8014552
1764921343067,8.6095495,-30.6386,-36.420597,5.3682837,1.2767084,0.8210029
1764921343122,14.788984,-13.771448,-56.586956,2.6853635,0.73426,0.344528
1764921343175,11.3964,-13.548787,-60.58767,0.79534656,-0.19914207,-0.18692477
1764921343230,11.959038,-14.18325,-65.651405,-1.1472049,-0.5852089,-0.49235737
1764921343283,8.3629465,-42.209778,-53.721096,-5.5552087,-2.2699752,-0.7440339
1764921343339,4.4220905,-61.028202,-40.45004,-7.33527,-1.831374,-0.41538838
1764921343397,9.227253,-78.44363,-5.631162,-8.976054,-3.12763,0.91507614
1764921343449,9.969456,-78.44363,2.906561,-8.87465,-2.0231857,1.5161675
1764921343503,11.274296,-78.44363,12.174516,-8.5557785,-2.7574458,1.8851302
1764921343559,20.59253,-52.79933,49.947834,-7.1459017,-1.8936822,1.7922786
1764921343612,21.456835,-29.510931,63.61873,-5.6089644,-0.4642576,1.5393804
1764921343664,21.693861,-12.023681,72.683174,-3.8154643,-0.75747293,0.93584555
1764921343717,17.82962,2.6623523,72.103775,0.14294247,0.22968534,0.03176499
1764921343773,17.374722,-1.4556746,70.46854,1.8875736,-0.14660765,-0.43493605
1764921343826,18.80406,-13.215993,65.08637,3.6138787,0.784351,-0.66339964
1764921343879,13.342886,-50.690037,42.379765,6.8233647,1.7458528,-1.1044444
1764921343931,9.78989,-63.127914,25.591621,7.9534655,1.7250835,-1.0067059
1764921343984,8.279149,-71.09821,11.935096,8.638856,1.3304645,-0.87598073
1764921344038,2.657564,-70.456566,-8.623915,8.460484,1.4941764,-0.643852
1764921344093,1.5705963,-59.79758,-16.153679,7.8545055,1.5809193,-0.010995574
1764921344145,3.181894,-53.349995,-21.38501,7.2302012,1.1545353,0.27366763
1764921344197,7.079654,-34.830845,-36.45172,5.367062,0.009773844,0.46303585
1764921344250,7.03177,-25.902868,-52.236694,4.08791,0.5925393,0.33475417
1764921344306,3.6990416,-18.102558,-61.562107,2.171015,0.064751714,0.12950343
1764921344361,4.7429137,-17.314867,-68.249115,-2.3945918,-0.70616025,-0.20891592
1764921344413,4.9703627,-32.82211,-57.226208,-4.7403145,-1.4074335,-0.22113322
1764921344465,2.6862943,-52.624554,-46.25837,-6.5814624,-1.3573426,-0.014660766
1764921344517,5.0038815,-78.44363,-20.910957,-8.878316,-2.0073032,0.96761054
1764921344571,6.6774287,-78.44363,-8.930372,-9.3132515,-2.1135938,1.4782939
1764921344625,10.065224,-78.44363,-0.01436521,-9.399995,-1.174083,1.9511036
1764921344678,18.938135,-75.060616,39.518692,-8.621752,-0.6817256,2.298075
1764921344730,21.41374,-48.578354,63.173405,-7.216762,-1.0213667,1.8362609
1764921344783,19.804836,-24.121582,77.30159,-5.2888713,-1.0140363,1.3793337
1764921344836,19.632454,2.8562827,76.14519,-1.0421361,-0.172264,0.50579643
1764921344889,19.850327,5.3007627,70.157295,0.8552113,0.3494149,0.06719518
1764921344944,19.127277,-4.546589,65.749565,2.5289822,0.81000733,-0.40561453
1764921344996,14.535198,-33.97372,47.79545,5.6639423,1.7165314,-0.7464773
1764921345048,9.095572,-48.96861,35.223495,6.917438,1.9095647,-0.65484756
1764921345100,9.167398,-59.11284,18.574217,7.7494364,2.0415115,-0.3885103
1764921345156,3.6774938,-61.121574,-5.41329,8.07686,2.0781636,-0.03176499
1764921345208,6.3566055,-56.402603,-17.518373,7.7714276,0.32498032,0.4129449
1764921345263,2.9017725,-44.026974,-22.172703,6.92599,0.6133087,0.38362336
1764921345315,2.336741,-27.81823,-36.961685,4.8905873,1.2547172,0.24801129
1764921345367,4.201824,-17.082628,-50.352455,3.2632422,-0.47036624,0.15393804
1764921345419,-0.031124622,-10.089166,-60.070522,1.5406022,-0.25045475,0.021991149
1764921345475,-0.4405331,-16.73547,-64.13109,-2.5192082,-1.4367551,0.17837265
1764921345529,1.1994951,-28.8214,-56.299652,-4.5045204,-1.8997909,0.4092797
1764921345581,0.11252748,-46.385265,-44.88889,-6.1318655,-2.3518312,0.79412484
1764921345634,3.4380736,-75.09174,-16.043545,-8.131838,-2.207667,1.7947221
1764921345687,8.767567,-78.44363,-4.2305546,-8.382293,-2.6401596,2.453235
1764921345741,10.110714,-78.44363,7.065289,-8.367632,-0.48258355,2.7476718
1764921345795,16.634912,-54.650047,47.58476,-7.3878045,-0.14172074,2.5008824
1764921345847,23.712173,-33.89232,63.89885,-6.0084705,-0.97127575,1.9914207
1764921345899,27.068844,-13.261483,73.87309,-4.1587706,-0.24190263,1.486846
1764921345953,24.128765,3.4715924,67.62183,-0.11484267,0.31398472,-0.13805555
1764921346011,18.229452,1.0869676,59.84786,1.5296066,1.0445796,-0.61453044
1764921346064,13.129802,-5.0661306,56.515133,2.8820622,1.4514158,-0.86254174
1764921346116,12.636597,-35.654453,43.308716,5.644395,2.0011945,-1.0238101
1764921346169,7.40766,-46.06444,25.675419,6.768387,2.652377,-0.6939429
1764921346221,5.638345,-50.261475,11.077971,7.3218307,1.9010127,-0.35430184
1764921346274,4.596867,-50.608635,-5.758055,7.403687,1.3353515,0.042760566
1764921346328,5.475539,-45.736435,-14.283808,7.0249505,0.66828656,0.12705997
1764921346381,5.374983,-39.674316,-16.010027,6.4177504,0.39706242,0.004886922
1764921346434,2.861071,-27.945122,-28.294676,5.186246,0.60231316,0.14905111
1764921346486,3.110068,-22.586899,-39.57376,4.3078218,1.0934488,0.1881465
1764921346539,1.5035586,-11.113884,-53.201557,2.9675834,0.7012733,0.2761111
1764921346596,-0.32800564,-8.173804,-63.405643,-0.7635816,-0.408058,0.032986723
1764921346648,-2.542642,-17.125725,-59.412117,-2.8136454,-1.3585643,0.1282817
1764921346701,-2.0853498,-30.38242,-49.509697,-4.5313983,-1.7519615,0.50335294
1764921346753,0.5243302,-60.4512,-24.763227,-7.044498,-2.5363126,1.5564847
1764921346806,1.1180922,-67.79421,-13.730747,-7.594277,-1.3610078,2.1111503
1764921346860,7.1275387,-72.091805,-4.572925,-7.8312926,-2.0964894,2.4727826
1764921346914,13.227964,-61.662666,20.803219,-7.465995,-0.88208944,2.3408356
1764921346967,21.576546,-48.42273,48.358086,-6.995629,0.28710666,2.1294763
1764921347019,20.458454,-26.731262,65.40959,-5.39394,-1.0128145,1.359786
1764921347072,16.17762,3.1651347,70.279396,-1.6395624,0.6927212,0.23701571
1764921347124,12.540829,7.321469,64.82301,0.13561209,0.6939429,-0.1282817
1764921347181,9.610326,3.8522706,58.274868,1.6554449,0.8686504,-0.35185838
1764921347233,13.43626,-15.028404,46.852135,4.0463715,0.83077675,-0.5839872
1764921347286,10.287885,-27.983429,36.18836,5.254663,1.9523253,-0.6291912
1764921347339,5.781997,-35.467705,26.906038,6.1404176,2.1038198,-0.4801401
1764921347394,3.7373488,-45.851357,4.9775453,7.0738196,2.085494,-0.02321288
1764921347447,1.6208745,-46.46906,-2.3056161,7.101919,1.3720033,0.2968805
1764921347500,4.144363,-45.207317,-8.597578,6.9015555,0.87964594,0.4642576
1764921347553,3.6056678,-38.1947,-20.84871,6.173404,0.33475417,0.61941737
1764921347606,4.9296613,-31.17969,-30.095116,5.4953437,0.5644395,0.5338962
1764921347660,4.3885717,-21.270088,-44.991837,4.4703116,0.43127087,0.5729916
1764921347714,3.7852328,-8.829816,-58.128822,1.2486086,0.49113566,0.14294247
1764921347766,2.4277205,-10.038888,-62.26361,-0.73548174,-0.7806858,-0.04153884
1764921347819,-0.7110779,-19.938911,-59.524643,-2.7892108,-0.81489426,-0.008552114
1764921347871,1.5945383,-46.60553,-43.208157,-6.2735863,-1.3414601,0.33475417
1764921347923,0.51954174,-61.71773,-32.62818,-7.5185294,-1.7116444,0.6768387
1764921347976,3.040636,-76.176315,-19.74977,-8.513018,-2.5717428,1.4440855
1764921348034,6.50744,-78.44363,2.408567,-8.837998,-0.35918877,2.5314255
1764921348087,18.152838,-78.44363,17.156849,-8.658404,-3.602883,2.5912905
1764921348139,22.287624,-65.280304,49.60307,-7.8752747,-0.43860126,3.0042353
1764921348191,29.925127,-17.266983,68.01448,-4.0097194,-0.816116,1.5711454
1764921348244,22.201433,-7.1107793,60.015453,-2.2186625,0.18692477,0.91629785
1764921348296,19.318813,1.7549498,56.61569,-0.7684685,-0.04520403,0.4202753
1764921348355,17.396269,-4.972757,51.006073,1.5735888,0.36163223,-0.24556783
1764921348407,22.0913,-11.042058,49.188873,2.846632,0.47891834,-0.6133087
1764921348460,20.812796,-20.503942,41.589676,4.0683627,1.0775663,-1.0384709
1764921348517,14.681245,-40.562565,25.56768,6.087883,1.8301523,-1.6493362
1764921348568,8.348581,-47.189716,17.537527,6.7292914,1.8790215,-1.609019
1764921348620,5.2480903,-51.60462,7.6470804,7.20821,1.9914207,-1.3096951
1764921348672,3.1675289,-51.4083,-5.415684,7.285179,1.2681563,-0.68294734
1764921348724,1.8938135,-48.147396,-10.58716,7.0432763,1.8606955,-0.31031954
1764921348777,1.2186487,-43.85459,-18.06425,6.7231827,1.5039502,0.09896017
1764921348833,2.681506,-27.758375,-36.545094,5.3084188,0.70371675,0.2846632
1764921348886,4.9559975,-20.448877,-44.86734,4.0585885,0.10140363,0.28588495
1764921348938,3.5553896,-12.339716,-57.159172,2.6108382,0.14660765,0.12950343
1764921348990,0.7206547,-10.666168,-57.867855,-1.1997393,-0.9260717,-0.058643065
1764921349043,0.49559975,-17.867928,-51.52322,-2.992018,-1.1301007,0.02443461
1764921349098,-0.14604631,-28.62268,-41.446026,-4.5069637,-0.94806284,0.18936823
1764921349154,-1.0702082,-46.84495,-22.570139,-6.6828656,-0.49846604,0.5180137
1764921349207,1.2090719,-53.479282,-14.994885,-7.119024,-1.59558,0.6426302
1764921349259,2.6240451,-59.378597,-5.961562,-7.456221,-2.470339,1.1313224
1764921349311,15.95496,-57.1879,14.5328045,-7.2729616,-2.8087585,2.194228
1764921349364,21.617247,-45.98543,29.372066,-6.6706486,-1.0555751,2.2785273
1764921349419,20.932505,-31.998507,37.5339,-5.681047,-0.4361578,1.9181169
1764921349471,22.325932,-7.479486,53.814472,-3.4428365,1.2473868,0.88697636
1764921349524,17.635689,1.6328455,59.886166,-1.9242256,0.28710666,0.039095376
1764921349576,13.280637,4.6902413,62.021793,-0.2968805,1.1887437,-0.42149702
1764921349629,5.2720323,-5.8705826,51.43224,2.8185322,1.4880677,-0.62796944
1764921349683,4.146757,-13.797785,42.683826,4.075693,1.2681563,-0.5522222
1764921349736,3.3327289,-23.075315,32.891544,5.0433035,1.781283,-0.30176744
1764921349789,5.327099,-33.02562,12.7730665,6.2222733,0.6206391,-0.062308256
1764921349842,3.2872388,-34.90746,5.08289,6.3982024,0.95905846,0.014660766
1764921349898,3.2800562,-35.98485,-1.0654198,6.4214153,0.8735373,0.087964594
1764921349953,6.5265937,-30.68409,-12.157756,5.6834903,1.2986995,0.35185838
1764921350005,1.2880806,-27.370514,-12.030864,5.258328,-0.11484267,0.1441642
1764921350057,4.3358994,-24.897303,-24.126371,4.9138002,1.2034045,0.3005457
1764921350110,4.1132383,-14.207192,-37.83078,3.2705724,-0.7440339,-0.30543262
1764921350163,3.466804,-9.32781,-49.234364,2.1539109,0.68294734,-0.3652974
1764921350216,-1.5825673,-2.932897,-55.820812,0.5119051,-0.33353242,-0.44837508
1764921350273,-5.3079453,-16.417042,-52.260635,-3.0848694,-0.93218035,-0.20280726
1764921350325,-6.6079965,-28.158207,-45.50659,-4.6718974,-1.9364429,0.17715092
1764921350379,-4.3478703,-42.260056,-35.515587,-5.9168406,-2.669481,0.8185594
1764921350432,0.4381389,-63.36973,-14.568717,-7.3401566,-2.179567,2.261423
1764921350488,5.5377884,-71.11976,-3.0334535,-7.626042,-1.8289305,2.8637362
1764921350541,14.31972,-69.62338,9.11712,-7.5331903,-1.0384709,3.1569517
1764921350594,20.254946,-39.10689,48.15458,-5.975484,-1.0323622,2.3726006
1764921350648,24.179043,-20.240582,58.169525,-4.604702,-0.43860126,1.8704693
1764921350702,20.748152,-4.915296,62.00743,-3.095865,-0.25778514,1.2363913
1764921350755,17.906235,4.6399627,58.531048,-0.1160644,0.09407325,0.2284636
1764921350807,16.766594,3.016694,53.730675,1.2144,0.61819565,-0.10751228
1764921350859,15.284584,-3.0190883,44.77636,2.3848178,0.2284636,-0.50823987
1764921350911,15.248671,-15.45936,25.646688,4.0549235,0.4886922,-1.1142182
1764921350963,11.348516,-21.674707,25.330654,4.451986,1.8851302,-1.1850786
1764921351017,8.750807,-27.499802,18.907011,5.158146,1.53205,-1.1606439
1764921351072,3.7469256,-34.000057,4.8243165,5.9424973,2.0598376,-0.8552113
1764921351125,2.1140802,-34.055126,-1.5969325,6.010914,1.8753563,-0.47158796
1764921351177,2.0470424,-33.67684,-4.6782703,5.911954,0.8222246,-0.35185838
1764921351230,1.6136919,-29.484594,-14.403518,5.5552087,-0.05497787,-0.37995818
1764921351284,1.340753,-26.58761,-21.497538,5.0933943,0.8344419,-0.30176744
1764921351336,2.0135236,-20.396204,-33.57868,4.528955,-0.44348818,-0.45937067
1764921351390,-6.2871737,-5.5377884,-57.503937,2.0696115,0.059864793,-0.41905355
1764921351442,-4.7500963,-2.183512,-60.511055,0.21135938,-0.79412484,-0.23945917
1764921351495,-7.079654,-7.2831616,-60.927647,-1.7421877,-0.32498032,-0.02565634
1764921351548,-7.4363904,-37.581783,-48.487373,-5.29498,-2.0378466,1.0567969
1764921351604,-5.4324436,-53.450554,-39.609673,-6.532593,-1.7971655,1.7556267
1764921351658,0.20590134,-68.26588,-27.471071,-7.5234165,-2.8026497,2.4019222
1764921351711,12.030864,-78.44363,5.245696,-8.152608,-0.19058995,3.450167
1764921351763,17.5902,-75.28806,18.088194,-7.585725,-2.1160371,3.0921998
1764921351816,21.150377,-51.930233,43.67742,-6.660875,-0.56688297,2.9174924
1764921351870,26.197355,-12.375628,59.136784,-3.6603045,-0.18448131,1.6505579
1764921351923,21.080946,-2.9759927,57.997143,-2.189341,0.3371976,0.9944886
1764921351976,24.265234,2.2409728,61.24368,-0.77946407,-0.52290064,0.4007276
1764921352028,21.883003,-4.4556093,55.44732,1.9889772,0.10995574,-0.42760566
1764921352080,23.017855,-9.555259,47.730804,3.3353243,0.75991637,-0.8210029
1764921352133,21.564575,-21.167137,40.979156,4.3994517,1.1007792,-1.3011429
1764921352193,11.808203,-41.606438,22.797588,6.174626,1.672549,-1.6358972
1764921352248,6.220136,-46.933537,12.464214,6.7195177,1.9083431,-1.4795157
1764921352309,2.4420857,-47.577576,-4.474763,6.945538,1.1142182,-1.0580186
1764921352361,0.39025488,-44.649467,-8.7053175,6.7231827,1.1081096,-0.77457714
1764921352415,2.0566192,-40.0933,-14.302961,6.392094,1.128879,-0.53023106
1764921352469,1.4628572,-30.99773,-26.254816,5.467244,0.19058995,-0.28588495
1764921352523,-0.8619126,-24.423252,-36.750996,4.6572366,0.8906415,-0.24312437
1764921352576,-0.8834604,-14.970943,-49.14099,3.4306192,0.3359759,-0.04520403
1764921352628,-4.2042184,-6.8905125,-65.17496,0.039095376,0.7538077,0.008552114
1764921352681,-1.6208745,-10.398018,-63.925186,-2.112372,-1.4404203,0.0720821
1764921352735,-3.9001546,-25.857378,-55.744198,-4.138001,-1.346347,0.40561453
1764921352790,-2.4971523,-59.735332,-37.14125,-7.1287975,-1.9853121,1.319469
1764921352843,0.2657564,-74.38545,-25.347414,-8.018217,-2.4862216,1.9706513
1764921352897,4.8745947,-78.44363,-13.457808,-8.531344,-2.8735101,2.7317894
1764921352950,19.376274,-78.44363,11.767501,-7.920479,-1.2913691,4.2687263
1764921353004,25.127148,-73.7055,24.698586,-7.3059483,-2.171015,4.0989056
1764921353059,28.828583,-52.63413,50.991707,-6.400646,-0.6206391,3.7739255
1764921353112,38.16836,-9.121908,67.26031,-2.6108382,0.12461651,1.6285667
1764921353164,38.204277,-1.6232687,61.657875,-0.8772025,0.34208453,0.6768387
1764921353216,33.626564,-1.4221559,56.649208,0.59864795,0.4801401,-0.25411993
1764921353270,23.374592,-12.157756,42.035,3.00057,0.97127575,-1.3671165
1764921353324,21.35149,-21.57894,36.01358,3.940081,1.1569787,-1.7751744
1764921353379,18.033127,-29.929916,29.199684,4.823392,1.9303342,-1.9352211
1764921353433,10.201694,-42.173862,14.956578,6.137974,2.035403,-1.8887954
1764921353485,6.1890116,-44.426807,8.106767,6.5118237,2.189341,-1.6212363
1764921353546,5.094861,-45.5449,1.7741034,6.7158527,2.0732768,-1.2522738
1764921353598,2.3127987,-43.536163,-7.908048,6.6339965,1.6737708,-0.61819565
1764921353650,2.7006595,-42.018238,-12.634202,6.38232,1.8020525,-0.2968805
1764921353704,4.5801077,-31.814152,-31.1342,5.5051174,0.453262,0.02321288
1764921353758,2.908955,-22.596476,-44.56567,4.505742,1.3768903,0.10262536
1764921353810,3.3686419,-12.480973,-55.51675,3.0714304,0.22479841,0.103847094
1764921353865,3.3901896,-6.179435,-60.89652,1.2681563,-0.59131753,-0.05131268
1764921353917,-2.3199813,-15.820885,-61.432823,-2.7537806,-1.4404203,-0.047647487
1764921353969,0.06943185,-30.528465,-52.914253,-4.656015,-2.1270328,0.30298916
1764921354023,-2.4229321,-47.04846,-44.52018,-6.228382,-2.0549507,0.7464773
1764921354075,1.5131354,-78.44123,-20.147207,-8.350528,-3.3194418,2.1282544
1764921354128,9.935937,-78.44363,-5.4922986,-8.532566,-2.1539109,3.0775392
1764921354181,14.207192,-78.44363,4.8123455,-8.288219,-2.951701,3.2779028
1764921354233,23.410503,-54.027557,37.00957,-6.6889744,-2.3139575,3.018896
1764921354286,34.54354,-34.52918,53.079453,-5.6101866,-1.3451253,2.7940977
1764921354339,34.347218,-15.5359745,61.63154,-3.962072,-0.6230826,1.9071213
1764921354393,27.217285,2.9257145,63.082428,-0.20891592,0.28588495,0.20525073
1764921354448,24.619576,0.557849,57.520695,1.2412782,0.7318166,-0.29077184
1764921354501,23.039402,-6.2943563,54.14966,2.6022859,0.3494149,-0.7672467
1764921354554,23.752874,-29.070396,36.973656,4.97,1.1972959,-1.6383406
1764921354608,15.8304615,-41.819523,26.489449,5.863085,1.4269812,-2.0305161
1764921354666,6.229713,-52.670044,6.301539,6.952868,2.1282544,-1.8240436
1764921354718,3.3734303,-53.09382,-1.3934253,7.1068063,2.090381,-1.3976597
1764921354772,2.7485435,-50.268658,-8.408437,7.027394,1.6920967,-1.0482447
1764921354829,1.6400281,-40.04063,-19.49359,6.3493333,1.8497,-0.29443705
1764921354881,1.0199299,-35.017593,-27.511772,5.816659,0.84665924,-0.11362094
1764921354935,2.1284454,-25.914839,-38.774097,5.042082,0.36774087,-0.112399206
1764921354987,1.0630256,-9.114726,-63.43198,1.9938642,-0.5143485,-0.029321533
1764921355045,-0.320823,-6.9000893,-64.83019,-0.11362094,-0.52534413,-0.036651913
1764921355097,-0.56982,-10.9822035,-60.865395,-2.194228,-0.79168135,0.04520403
1764921355150,-1.2186487,-37.064636,-43.804314,-5.6627207,-1.7018706,0.65118235
1764921355203,-2.5210943,-52.636524,-33.298557,-6.8526864,-1.5882497,1.0604621
1764921355255,0.94810385,-65.639435,-21.480778,-7.579616,-2.1551325,1.6261233
1764921355308,13.788208,-75.41735,-3.145981,-7.8410664,-3.7727036,2.6584857
1764921355365,12.378023,-75.67832,8.236053,-7.6822414,-0.57910025,3.0531044
1764921355417,20.082563,-66.73598,18.332403,-7.3047266,-2.9321532,2.8637362
1764921355470,30.260315,-29.645006,57.367466,-5.303532,-1.1447614,2.3054054
1764921355528,29.645006,-15.789761,67.3058,-3.5124753,-0.6951646,1.6200147
1764921355581,30.969,-2.0087352,66.3122,-1.2657127,0.53023106,0.8417723
1764921355634,27.135881,-3.964798,58.669914,1.8154916,0.752586,-0.49235737
1764921355687,22.474371,-12.751518,50.87918,3.218038,1.3170254,-0.9456194
1764921355739,19.84075,-22.139183,38.893806,4.4312167,2.043955,-1.1484267
1764921355796,8.298303,-37.94331,16.972496,5.9730406,1.8936822,-1.0519099
1764921355849,5.1140146,-40.141186,9.828198,6.373768,1.3573426,-0.9089675
1764921355903,3.1747115,-40.524258,1.9560628,6.658431,0.34208453,-0.8686504
1764921355955,3.4261026,-32.953793,-9.871294,5.984036,2.0744984,-0.49602258
1764921356008,0.62009823,-30.001741,-11.432313,5.572313,1.7165314,-0.21746802
1764921356065,2.15957,-23.4536,-25.670631,4.7073274,0.784351,-0.29810223
1764921356117,-3.4883518,-17.937359,-34.557907,4.1135664,0.34697145,-0.30176744
1764921356169,-1.091756,-7.275979,-47.36449,3.050661,0.0036651916,-0.17837265
1764921356222,0.06464344,-2.3127987,-53.764194,-0.2406809,-1.2034045,-0.2761111
1764921356277,-1.7980455,-7.467515,-52.830456,-1.9572122,-0.5216789,-0.15515977
1764921356330,-3.071761,-17.269377,-48.54244,-3.563788,-1.6077974,-0.002443461
1764921356385,-3.2728736,-43.023804,-34.318485,-6.0671134,-2.2198844,1.1398746
1764921356437,3.2082303,-55.047485,-22.723368,-6.9247684,-3.159395,1.8252654
1764921356490,6.6056023,-64.84935,-8.676587,-7.360926,-2.2479842,2.4959953
1764921356548,20.489578,-67.33214,14.796166,-7.1874404,-2.0109684,3.1031954
1764921356604,23.037008,-50.98692,31.656136,-6.5130453,-1.7800614,2.9639182
1764921356657,26.692955,-37.8643,45.863327,-5.5332174,-0.7012733,2.5558603
1764921356711,26.31946,-5.092467,57.913345,-2.8527408,0.081855945,1.2400564
1764921356765,22.548592,2.4420857,58.210224,-1.4013249,0.6805039,0.6169739
1764921356818,20.39381,2.779668,56.63963,-0.032986723,0.065973446,0.037873644
1764921356871,18.076223,-6.385336,48.204857,2.5546384,0.7318166,-0.6805039
1764921356923,17.7961,-15.892711,45.183376,3.7348301,0.516792,-1.0861185
1764921356977,17.47049,-28.050467,33.765427,5.062851,1.6566665,-1.3988814
1764921357033,10.448297,-44.66862,16.476896,6.591236,1.7373008,-1.518611
1764921357085,6.4523735,-47.84094,5.9424086,6.972416,1.767844,-1.3988814
1764921357137,3.8833952,-46.071625,-2.7389667,7.0139546,1.8875736,-1.0543534
1764921357188,0.51235914,-39.40138,-13.108254,6.367659,1.2327261,-0.5363397
1764921357242,0.22984336,-34.136528,-18.442535,5.880189,0.7452556,-0.31031954
1764921357301,1.5131354,-28.649017,-26.477476,5.3206363,0.05497787,-0.29077184
1764921357354,0.48362875,-13.074736,-47.074795,3.2888985,0.30298916,-0.28221974
1764921357407,0.016759412,-7.019799,-55.3707,1.8216002,0.14172074,-0.29565877
1764921357464,-5.434838,-8.343793,-54.906227,-1.7348573,-0.7770206,-0.15515977
1764921357516,-5.2289367,-18.401834,-51.188034,-3.4074063,-1.7837266,0.16737708
1764921357568,-9.61272,-33.032803,-46.557648,-4.9736648,-1.6261233,0.73548174
1764921357620,0.4261679,-61.38015,-25.673025,-7.159341,-3.136182,2.172237
1764921357673,4.0533834,-71.05273,-14.132973,-7.5820594,-3.2901201,2.978579
1764921357725,11.408371,-76.92091,-3.1866825,-7.626042,-3.097087,3.749491
1764921357779,17.439365,-74.737404,9.900024,-7.3462653,-1.6945401,3.9950588
1764921357833,25.7664,-48.76031,35.63051,-5.925393,-0.47769663,3.4746015
1764921357885,27.518955,-28.328194,46.983814,-4.8820353,-0.657291,2.792876
1764921357938,32.055965,-16.711529,51.748276,-3.662748,-0.24190263,2.058616
1764921357990,28.984205,0.6943185,61.047356,-0.9334021,0.16371189,0.52290064
1764921358041,27.495012,0.842759,56.455276,0.5290093,0.344528,-0.12095132
1764921358093,25.22052,-5.523423,54.08741,1.8729129,0.56688297,-0.68416905
1764921358145,18.715475,-24.856602,38.99197,4.4898596,1.205848,-1.5845845
1764921358199,15.773001,-35.503616,28.938717,5.425705,1.8484782,-1.7385225
1764921358253,11.176133,-41.31195,20.190304,6.1404176,2.2272146,-1.6688838
1764921358305,5.8466406,-45.72207,1.5849615,6.8184776,2.3335052,-1.2241739
1764921358357,3.8163576,-44.084435,-4.2784386,6.741509,2.3811526,-0.77946407
1764921358410,3.071761,-42.298363,-8.468291,6.476393,2.175902,-0.35185838
1764921358464,1.6927006,-35.137302,-18.29649,5.793446,0.8686504,0.36774087
1764921358517,4.4316673,-29.549238,-27.691338,5.2888713,1.0751228,0.44715336
1764921358569,7.2089415,-22.68985,-40.825928,4.555833,1.2632693,0.5497787
1764921358623,6.588843,-1.1731589,-58.81596,1.4892895,0.15271631,-0.19792034
1764921358675,4.5920787,-0.8595184,-62.567673,-0.5216789,-0.51068336,-0.36651915
1764921358728,1.7788919,-10.477027,-55.279724,-2.5289822,-1.4220943,-0.41050145
1764921358786,-0.05746084,-33.142933,-38.204277,-5.396384,-3.1667254,0.45570546
1764921358841,0.031124622,-45.68376,-26.688166,-6.296799,-3.408628,1.1618657
1764921358893,1.2354081,-53.915028,-17.408241,-6.7170744,-3.8313468,1.9743165
1764921358946,9.270349,-57.594917,4.2161894,-6.785491,-1.5296066,2.801428
1764921358999,14.999674,-51.475338,14.4609785,-6.359107,-2.0952678,2.8478537
1764921359052,15.243882,-40.34948,24.617182,-5.8850756,-0.5864306,2.7782152
1764921359105,19.67555,-15.98369,47.170563,-4.384791,-0.17470746,1.9938642
1764921359157,19.783289,-6.667852,49.514484,-3.2021556,0.010995574,1.4343116
1764921359209,18.112135,-1.9297266,51.33647,-2.0390682,0.81489426,0.9334021
1764921359262,9.270349,-1.1875241,34.32088,0.37018433,0.7330383,0.2687807
1764921359318,6.459556,-1.7429788,21.825542,1.0910053,0.77091193,0.13927728
1764921359370,3.2513258,0.78769237,10.749966,1.4208726,-0.33108896,-0.036651913
1764921359422,-1.8626889,2.6408045,2.7102363,1.0103711,0.029321533,0.15393804
1764921359475,-0.4261679,3.4691982,1.9393034,0.6927212,-0.087964594,0.33841935
1764921359528,0.63206923,1.5586253,3.4572272,0.4092797,0.2687807,0.4642576
1764921359588,2.1260512,1.946486,5.3821654,0.21135938,0.3726278,0.23823744
1764921359641,0.81163436,3.4859576,6.31351,0.14172074,0.9053023,0.15149458
1764921359693,0.6392518,4.465186,5.741296,0.13561209,0.35308012,0.034208454
1764921359744,-0.5746084,4.745308,6.2464724,-0.042760566,0.41172317,0.058643065
1764921359795,0.090979666,5.815516,7.0724716,-0.111177474,-0.061086524,0.095294975
1764921359847,0.4333505,5.2169657,7.5704656,-0.16493362,0.18325958,0.17837265
1764921359904,3.9624038,4.4723687,8.995016,-0.21135938,-0.118507855,0.118507855
1764921359956,2.492364,3.5769374,9.629479,-0.21013765,0.20769419,0.04642576
1764921360008,1.9656396,3.4261026,9.411607,-0.13561209,-0.42149702,-0.081855945
1764921360061,1.472434,3.277662,8.920795,-0.07574729,-0.5742133,-0.22724187
1764921360115,1.6903064,3.4093432,8.078036,-0.08674286,-0.44226643,-0.2565634
1764921360173,0.79248077,3.3901896,8.456321,-0.15027285,0.02565634,-0.22235495
1764921360225,0.7374141,3.2225955,8.295909,-0.21991149,0.1001819,-0.2284636
1764921360277,0.4357447,3.0933087,8.836999,-0.25534168,0.1966986,-0.20891592
1764921360330,-0.272939,2.858677,9.473856,-0.22724187,-0.13316862,-0.20891592
1764921360383,1.6136919,2.4253263,9.167398,-0.30298916,0.31031954,-0.047647487
1764921360434,0.079008654,2.755726,9.423578,-0.344528,1.2681563,0.02321288
1764921360486,0.7230489,2.6551697,10.326192,-0.31764993,0.45570546,-0.039095376
1764921360541,0.2825158,2.0350714,9.531317,-0.15760323,0.13683382,-0.17348573
1764921360594,-0.019153614,2.1068976,9.346964,-0.16249016,0.15149458,-0.18203785
1764921360646,-0.37349546,2.1763294,9.040505,-0.16371189,0.24556783,-0.1881465
1764921360702,-0.9672575,2.348712,9.0716305,-0.20158553,0.1685988,-0.17348573
1764921360755,-0.8595184,1.9560628,8.990228,-0.2125811,0.17837265,-0.15393804
1764921360811,-0.4189853,1.9321208,9.141062,-0.22724187,0.07819075,-0.15027285
1764921360864,-1.4939818,1.5011644,9.787497,-0.22235495,0.16493362,-0.12705997
1764921360917,-1.30484,1.1779473,9.5385,-0.19058995,0.052534413,-0.103847094
1764921360972,-1.5777789,1.5466543,9.591172,-0.17837265,0.18081611,-0.06719518
1764921361025,-1.4867992,1.3742718,9.749189,-0.13805555,0.13561209,-0.028099801
1764921361077,-1.5514427,1.3862427,9.763555,-0.118507855,0.02076942,-0.019547688
1764921361130,-1.3024458,1.0989386,9.864111,-0.10262536,-0.095294975,-0.0036651916
1764921361183,-1.448492,1.1300632,10.012551,-0.05497787,-0.17837265,0.04153884
1764921361236,-1.1563994,1.1348516,9.76116,-0.034208454,-0.1685988,0.07086037
1764921361288,-0.9792285,1.5251064,9.746795,-0.02321288,-0.20158553,0.09040806
1764921361343,-0.7086837,1.5921441,9.753978,-0.0036651916,-0.12705997,0.08307768
1764921361396,-0.7422025,1.4580688,9.842564,0.0036651916,-0.31520647,0.04886922
1764921361448,-0.33997664,0.8882488,9.9790325,-0.017104227,0.064751714,0.087964594
1764921361502,-0.7278373,1.2066777,10.2974615,0.032986723,0.1160644,0.05497787
1764921361555,-1.2593501,1.3790601,10.029311,0.06963864,0.18325958,0.056199603
1764921361608,-1.316811,0.8523358,9.660604,0.09162979,0.014660766,0.058643065
1764921361662,-1.661576,1.5227122,10.09156,0.1001819,0.018325957,0.15515977
1764921361714,-0.9840169,1.2569559,9.844957,0.1563815,-0.12461651,0.1685988
1764921361768,-0.7182605,1.0749966,9.734824,0.19547687,-0.2773328,0.1441642
1764921361822,-0.2633622,1.9919758,9.217676,0.17837265,-0.03176499,0.17348573
1764921361878,0.06943185,1.9081788,9.018958,0.16371189,-0.02443461,0.16737708
1764921361931,0.07182605,1.7166426,8.808268,0.14905111,-0.10629055,0.14049901
1764921361984,0.25617957,1.8579005,8.449138,0.09773844,-0.12461651,0.12339478
1764921362044,0.011971008,2.2505496,8.554482,0.05131268,-0.02565634,0.12339478
1764921362098,0.23223756,2.054225,8.765172,0.015882496,0.039095376,0.13805555
1764921362157,1.2354081,2.135628,9.428367,-0.0036651916,-0.04520403,0.07941248
1764921362210,0.20829555,1.8339585,9.165004,0.012217305,-0.061086524,0.05009095
1764921362262,0.20829555,1.99437,9.294291,0.0036651916,0.012217305,0.014660766
1764921362314,0.31124622,1.8674773,9.208099,0.019547688,-0.13072516,-0.0061086523
1764921362367,0.1412579,1.70946,8.892065,0.015882496,-0.06352998,-0.018325957
1764921362419,0.15083471,1.8315643,9.052477,-0.029321533,0.04153884,-0.010995574
1764921362473,0.23463176,1.9488802,8.932767,-0.039095376,-0.02443461,-0.02076942
1764921362526,0.39025488,2.0039468,8.856153,-0.06352998,-0.035430185,-0.037873644
1764921362579,-0.074220255,1.7860745,9.208099,-0.10262536,-0.039095376,-0.052534413
1764921362632,-0.34237084,2.0350714,9.555259,-0.09407325,-0.10995574,-0.05375614
1764921362684,-0.1412579,2.1643584,8.901642,-0.10873401,0.009773844,-0.021991149
1764921362745,0.5506664,1.721431,9.952697,-0.1160644,0.33841935,-0.008552114
1764921362797,1.3000516,1.7118542,9.399636,-0.12950343,0.9297369,0.019547688
1764921362849,1.6089035,1.5586253,9.382876,-0.13805555,0.5143485,-0.119729586
1764921362906,-1.1899183,2.6527755,9.615114,-0.081855945,0.22235495,-0.23823744
1764921362959,-1.1204864,2.3295584,9.7324295,-0.059864793,0.080634214,-0.18936823
1764921363011,-0.81881696,2.1045034,9.636662,-0.029321533,-0.05131268,-0.16615535
1764921363064,-0.878672,1.6184803,10.290278,0.015882496,0.07696902,-0.16371189
1764921363117,-0.8810662,1.8028339,10.254366,0.11728613,-0.312763,-0.16982053
1764921363173,-0.6536171,1.9680338,9.698911,0.21746802,-0.4654793,-0.18325958
1764921363226,-0.5626374,1.7142484,9.442732,0.22235495,-0.14049901,-0.22113322
1764921363278,-0.5267244,1.3455414,8.985439,0.23823744,0.12339478,-0.23335053
1764921363330,-2.2385786,1.1947067,9.3421755,0.2125811,0.13072516,-0.2773328
1764921363383,-3.6870706,1.6663644,9.797073,0.12217305,0.040317107,-0.2003638
1764921363438,-0.9672575,1.1061212,9.32781,0.112399206,-0.39950588,-0.13194689
1764921363496,-0.17717093,0.89064306,11.269507,0.062308256,0.02687807,-0.0842994
1764921363548,-3.7612908,3.1914709,13.141773,0.06841691,0.7012733,0.015882496
1764921363600,-1.4891934,1.8387469,13.682862,0.22968534,-0.51923543,-0.0012217305
1764921363652,-4.8698063,3.25372,19.83596,0.34574974,-0.84665924,-0.034208454
1764921363707,1.2808979,0.82121116,34.033577,1.4391985,-1.2131784,0.17837265
1764921363762,0.50278234,-0.842759,37.914577,2.234545,-0.35796702,0.19792034
1764921363816,5.710171,-5.3462524,38.4006,3.1740558,-0.04642576,0.16982053
1764921363868,8.707711,-19.07221,29.321789,5.0066514,0.38606682,-0.2443461
1764921363924,7.9248075,-26.403255,21.399374,5.679825,0.25778514,-0.44715336
1764921363980,5.070919,-32.81014,3.2632968,6.2247167,1.3096951,-0.47891834
1764921364033,4.2161894,-34.088642,-4.036624,6.177069,1.2144,-0.36041048
1764921364085,2.4037786,-32.680855,-9.181764,5.9583797,1.6603317,-0.13805555
1764921364140,3.4739866,-25.012226,-18.555063,5.1923547,0.7819075,0.27000242
1764921364194,2.4492683,-20.520702,-24.164679,4.5717154,0.84421575,0.34697145
1764921364248,1.0510546,-16.026787,-35.953728,3.7433822,-0.40317106,0.2565634
1764921364301,5.4683566,-6.4643445,-50.678066,1.065349,-0.28344148,0.16737708
1764921364353,1.7525556,-6.4164605,-57.463234,-0.98715824,-1.2217305,-0.04520403
1764921364405,-0.17956513,-11.858481,-56.36669,-2.4165828,-1.4782939,-0.008552114
1764921364463,0.79248077,-44.089226,-41.06774,-6.278473,-1.4892895,0.68294734
1764921364515,-0.8355764,-60.726532,-33.255463,-7.464773,-1.2034045,1.033584
1764921364569,2.018312,-75.67832,-21.763294,-8.374963,-2.0732768,1.5076154
1764921364629,16.757017,-78.44363,10.579977,-8.68406,-1.5845845,2.4141395
1764921364681,18.246212,-70.91865,35.455734,-8.159938,-1.8093829,2.2272146
1764921364737,22.17749,-45.853752,62.658653,-6.9394293,-0.62796944,2.140472
1764921364789,22.9173,-4.5537715,75.19948,-2.5485299,0.24801129,0.88331115
1764921364841,18.389864,3.2465374,72.407845,-0.47769663,0.6976081,0.37751472
1764921364896,17.161638,3.0214825,60.927647,1.282817,0.6719518,-0.047647487
1764921364948,20.626047,-15.057135,50.409916,3.866777,0.5412266,-0.7476991
1764921365001,16.548721,-28.574797,41.71178,5.114164,1.5760323,-1.033584
1764921365054,11.207258,-41.587284,30.233978,6.164852,1.7654005,-1.0714576
1764921365108,5.279215,-53.0603,7.0365586,7.347487,1.4929546,-0.7611381
1764921365162,4.2401314,-54.187965,-2.777274,7.4892077,1.314582,-0.5412266
1764921365216,3.5865142,-44.80509,-18.06425,6.8209214,1.6517797,-0.032986723
1764921365269,2.2864625,-36.98802,-28.052862,6.229604,1.9401081,0.49357912
1764921365321,5.451597,-27.866114,-43.279984,5.3291883,0.40317106,0.4129449
1764921365375,6.579266,-7.752425,-65.10792,1.9792033,-1.1044444,0.1001819
1764921365429,7.9032598,-5.813122,-64.44712,-0.29443705,-0.66828656,-0.052534413
1764921365484,7.587225,-12.500127,-58.8399,-2.483778,-0.2932153,-0.25045475
1764921365538,6.703765,-39.899372,-40.002323,-6.232047,-0.87109387,-0.42638394
1764921365595,7.551312,-53.725887,-28.009766,-7.059159,-1.0800097,-0.42394048
1764921365649,9.603143,-62.50303,-17.137695,-7.7812014,-0.956615,-0.41172317
1764921365702,-1.115698,-73.40623,11.042058,-8.317541,0.6951646,-1.6481144
1764921365756,0.80924016,-69.151726,21.84709,-8.126951,-0.90408057,-1.7153096
1764921365817,-7.405266,-35.764584,59.38099,-6.2247167,-2.1453588,-0.5852089
1764921365870,-11.494562,-16.984467,69.70958,-4.3371434,-0.89552844,-0.061086524
1764921365923,-8.949526,-5.7628436,72.0942,-2.3762658,-0.31520647,0.32986724
1764921365984,-3.928885,-0.91458505,55.579,1.1863003,-0.21991149,0.7367035
1764921366038,-4.225766,-5.7843914,49.40914,2.4312437,0.7049385,0.87598073
1764921366095,-2.5833437,-11.341333,39.832333,3.554014,0,0.88208944
1764921366148,-4.2880154,-25.359385,29.422344,5.0054297,0.66828656,1.1594223
1764921366201,-2.5187001,-31.53403,20.118477,5.5784216,1.0152581,1.4147639
1764921366255,-3.2130187,-34.63931,11.949461,5.924171,0.453262,1.6224581
1764921366311,-0.09816227,-36.243423,-1.6567876,6.101322,-0.3811799,1.6847663
1764921366367,2.7246015,-33.67684,-9.569624,6.009692,-0.8185594,1.4880677
1764921366419,4.8123455,-22.814348,-18.976442,4.982217,-0.4092797,0.9089675
1764921366471,6.3422403,-17.355568,-24.947582,4.2589526,0.29565877,0.87964594
1764921366523,8.662222,-13.230358,-30.265104,3.4550538,0.64873886,0.68294734
1764921366581,9.414001,-3.5194764,-52.830456,1.3353515,-0.30176744,0.20891592
1764921366635,10.745177,-3.2752678,-58.15516,-0.35430184,-0.7134906,-0.13072516
1764921366687,9.947908,-9.7084875,-58.938065,-2.2137756,-1.2217305,-0.4251622
1764921366739,8.813056,-37.10773,-42.36061,-5.7910028,-1.5027285,-0.66706485
1764921366791,5.995081,-53.72349,-30.121452,-7.1495667,-1.4110987,-0.5925393
1764921366844,6.169858,-68.071945,-15.289372,-8.082969,-2.0060816,-0.36041048
1764921366897,5.3199162,-74.11012,18.56464,-8.477588,-1.5809193,0.10873401
1764921366950,3.9959226,-58.705826,36.322433,-7.8117447,-1.1985176,0.23335053
1764921367002,-1.6017209,-38.92493,63.860542,-6.690196,-1.0079277,0.3933972
1764921367056,8.690952,-7.1059904,72.85795,-2.8270843,-0.18570304,0.5534439
1764921367108,6.3685765,-0.49081135,69.84844,-0.8197812,0.13316862,0.2687807
1764921367161,5.7484784,-0.17238252,64.22685,0.97249746,0.21502456,0.14782938
1764921367217,2.6479871,-12.907142,51.829678,3.594331,0.59864795,0.10629055
1764921367270,6.021417,-24.418463,44.920013,4.8123965,0.86376345,0.11362094
1764921367323,3.478775,-35.570656,34.43341,5.852089,1.0665708,0.12705997
1764921367376,4.525041,-47.558422,12.8688345,6.9882984,1.3170254,0.33108896
1764921367435,2.1188686,-49.820942,1.2689269,7.1556754,1.9999728,0.68783426
1764921367487,2.0207062,-47.182533,-7.0724716,6.945538,1.8753563,1.1887437
1764921367539,3.6822822,-37.97204,-16.551117,5.8960714,1.5381587,1.8032742
1764921367592,8.14268,-32.084698,-22.024261,5.3609533,-0.784351,1.5674802
1764921367646,8.528147,-26.379314,-33.33447,4.6865582,1.2412782,1.4856243
1764921367700,17.029957,-10.436325,-55.43774,2.1771238,-0.6805039,0.8564331
1764921367752,16.393099,-4.656722,-64.55007,0.3652974,-0.5876524,0.3408628
1764921367805,17.147272,-7.9846625,-63.549297,-1.8484782,-1.2583824,-0.19547687
1764921367858,12.322956,-38.10372,-45.080425,-5.7519073,-1.210735,-0.88208944
1764921367913,9.315839,-53.915028,-33.430237,-7.1410146,-1.4355333,-0.99204516
1764921367967,7.3765354,-66.7695,-20.219034,-8.141612,-1.0189233,-0.9297369
1764921368020,8.980651,-78.44363,4.390966,-8.880759,-2.0207422,-0.20525073
1764921368072,4.4723687,-78.44363,19.733011,-8.616865,-0.4569272,-0.017104227
1764921368123,6.9743094,-65.30904,35.551502,-7.8312926,-2.8857274,0.21624629
1764921368176,6.1770406,-21.830332,71.78056,-4.4495425,-1.1154399,0.453262
1764921368229,0.33518824,-7.48188,73.547485,-2.52043,0.18692477,0.52656585
1764921368286,6.256049,1.0510546,71.46692,-0.61453044,0.10262536,0.4642576
1764921368338,7.855376,-9.454702,61.94997,2.5912905,0.21991149,0.26633725
1764921368391,7.477092,-18.210299,53.491253,4.0084977,0.8686504,0.15393804
1764921368443,8.010999,-30.418333,43.706154,5.2009068,0.93828905,0.028099801
1764921368497,1.7884687,-49.22479,19.148825,6.8844514,1.6420058,0.36285394
1764921368550,0.7541735,-52.181625,9.548077,7.194771,1.5613716,0.7476991
1764921368602,2.1667526,-52.519207,1.5969325,7.2094316,1.5796975,1.1691961
1764921368655,4.3119574,-48.07557,-10.335769,6.663318,1.9352211,1.9388863
1764921368708,8.848969,-42.79396,-18.389864,6.2076125,1.8570304,2.276084
1764921368760,13.84088,-34.414257,-31.754297,5.553987,1.0384709,2.2553146
1764921368815,20.161573,-11.030087,-51.492096,3.0469959,-1.1594223,1.2742649
1764921368868,21.033062,-3.881001,-54.640472,1.3316863,-0.79412484,0.57787853
1764921368920,20.321983,-5.3342814,-55.99559,-0.47769663,-0.75747293,-0.18081611
1764921368977,13.084312,-22.158337,-49.059586,-3.9950588,-1.7128662,-1.0873401
1764921369035,10.177752,-37.730225,-43.713333,-5.5564303,-1.4110987,-1.1801916
1764921369090,10.0029745,-52.236694,-35.302505,-6.9369855,-1.672549,-1.1924089
1764921369143,7.711724,-78.44363,-6.8522053,-8.809898,-1.7030923,-0.6267477
1764921369195,5.6910176,-78.44363,6.9599442,-8.936958,-1.4575244,-0.37507126
1764921369248,3.4356794,-78.44363,22.967577,-8.642522,-0.7648033,-0.08674286
1764921369305,-1.2090719,-42.27921,60.04179,-6.418972,-1.0396926,0.02443461
1764921369357,0.78050977,-19.699492,75.70226,-4.0683627,-0.6035349,0.3494149
1764921369408,3.0382419,-2.396596,75.29046,-2.1343632,-0.008552114,0.31398472
1764921369460,0.19393034,-6.303933,65.83815,1.5271631,0.65240407,0.25411993
1764921369513,-0.36870706,-12.483368,55.121704,3.018896,0.7012733,0.31398472
1764921369565,0.30645782,-21.60767,48.801014,4.3114867,0.49480084,0.38606682
1764921369618,1.1971009,-41.53461,27.08321,6.3261204,0.74281216,0.59864795
1764921369670,2.942474,-47.965435,17.111359,6.894225,0.7501425,0.6731735
1764921369723,1.436521,-50.261475,6.4380083,7.203323,1.2779301,0.9407325
1764921369775,3.7972038,-47.24239,-6.5936313,6.877121,0.31520647,1.1985176
1764921369827,3.7493198,-44.026974,-11.355699,6.549697,0.44104472,1.1374311
1764921369885,3.751714,-39.877823,-18.260576,6.1807346,0.5900958,1.174083
1764921369938,5.0182467,-25.632324,-43.011833,4.834388,0.63163465,0.8002335
1764921369991,6.5696893,-13.304579,-55.83757,3.4562755,-0.34330627,0.65240407
1764921370043,8.176199,-4.247314,-59.859833,1.6016886,-1.3536774,0.38728857
1764921370096,7.989451,-10.527305,-56.13924,-2.5228734,-1.073901,-0.05497787
1764921370149,6.6965823,-25.53895,-51.250282,-4.3627996,-1.2156218,-0.20891592
1764921370205,3.8043866,-42.04697,-42.999863,-5.964488,-0.83077675,-0.18448131
1764921370258,6.0285997,-67.15018,-19.378668,-8.095186,-1.8936822,0.015882496
1764921370315,5.619191,-77.30159,-7.711724,-8.626639,-0.66339964,0.32620203
1764921370375,6.3063273,-78.40532,18.265366,-8.687725,-0.4728097,0.50946164
1764921370427,8.9279785,-65.4048,40.06457,-8.166046,-2.0024164,0.62796944
1764921370479,7.809886,-45.56884,64.157425,-6.9382076,-0.98715824,0.79534656
1764921370538,12.703634,-9.842564,78.426865,-1.9596558,0.3726278,0.48747048
1764921370590,13.371616,0.24420857,76.80599,-0.32742378,0.3200934,0.26145032
1764921370644,10.043676,-6.3829417,66.865265,1.9914207,0.46181414,-0.11728613
1764921370695,7.1347213,-28.62268,49.87122,4.9284606,0.7501425,-0.29077184
1764921370748,7.5944076,-43.907265,35.8819,6.1672955,1.486846,-0.20280726
1764921370800,4.596867,-54.5878,23.190237,7.044498,1.5601498,-0.02443461
1764921370855,6.14831,-62.823853,2.80361,7.882605,1.8533652,0.43249258
1764921370907,4.960786,-60.33149,-8.121132,7.8813834,1.8839084,0.7831292
1764921370960,4.55856,-54.175995,-15.500062,7.522195,1.9633209,1.1508701
1764921371013,9.536105,-36.600163,-35.25462,6.170961,0.50946164,1.536937
1764921371069,11.520899,-24.51902,-44.082043,4.9846606,0.6072,1.3952162
1764921371123,11.769896,-15.212758,-51.992485,3.5870006,-0.45937067,1.0140363
1764921371175,10.864887,-6.3182983,-57.98996,0.06352998,-0.57543504,0.13439035
1764921371227,9.674969,-9.562442,-55.057064,-1.8203784,-1.4159856,-0.21502456
1764921371280,9.093178,-18.813637,-49.014095,-3.6199875,-1.0885619,-0.376293
1764921371338,6.4068837,-49.040432,-35.676,-6.6511006,-0.8063421,-0.5497787
1764921371393,6.7851677,-63.891666,-24.123976,-7.8349576,-0.98471475,-0.54367006
1764921371446,7.350199,-76.46362,-8.590396,-8.596096,-1.455081,-0.44226643
1764921371506,6.9168487,-77.29441,22.115242,-8.542339,-0.6780604,-0.118507855
1764921371559,3.229778,-56.574986,36.688747,-7.773871,0,-0.10262536
1764921371613,0.9696517,-22.732944,75.09414,-5.2241197,-0.61453044,-0.18203785
1764921371665,-3.5793316,-5.2002063,78.426865,-2.9846876,0.058643065,-0.12705997
1764921371720,-7.2711906,2.980781,78.426865,-0.7367035,-0.047647487,-0.02687807
1764921371777,-7.433996,-4.8626237,59.30677,2.660929,0.55955255,0.43371433
1764921371832,-5.521029,-17.209522,53.27817,4.021937,0.408058,0.6817256
1764921371894,-1.6759412,-42.53778,23.762451,6.300464,0.48502702,1.2351695
1764921371947,1.2976574,-46.603138,12.133814,6.7573915,0.45081854,1.3255776
1764921371998,1.4030021,-46.742,2.9520507,6.9113293,0.55833083,1.4196508
1764921372049,4.19943,-41.168297,-8.896853,6.4715066,0.24190263,1.2999213
1764921372102,3.8498764,-36.760574,-13.596671,6.047566,0.61208695,1.3524556
1764921372154,7.5704656,-31.514877,-20.712238,5.5698695,-0.05375614,1.1239921
1764921372208,7.7667904,-25.639505,-27.722462,4.908913,0.61208695,0.9431759
1764921372260,12.993333,-10.113108,-51.130573,2.7843237,0.38362336,0.38240165
1764921372312,11.671733,-5.475539,-58.7154,1.1484267,0.5888741,0.05009095
1764921372364,13.40753,-5.5282116,-61.607597,-0.8197812,-1.6701056,-0.40561453
1764921372416,8.327033,-26.968288,-51.18564,-4.5191813,-1.2144,-0.86009824
1764921372473,8.834604,-41.74291,-42.465954,-6.133087,-1.6236799,-0.88453287
1764921372526,5.118803,-59.309166,-27.583597,-7.425678,-1.0115929,-0.8026769
1764921372579,4.984728,-76.19308,-3.2992098,-8.536231,-0.7867944,-0.2321288
1764921372632,3.181894,-76.91373,7.9152308,-8.503244,-0.70616025,-0.24923302
1764921372684,6.7109475,-71.13652,20.39381,-8.238129,-0.79534656,0.02687807
1764921372736,1.2162545,-37.169983,66.05363,-6.0267963,-1.7507398,0.30665436
1764921372789,4.43885,-13.989321,76.15955,-4.139223,-0.33108896,0.49968776
1764921372843,4.999093,-1.5370775,77.268074,-1.9669861,-0.02321288,0.35063666
1764921372895,2.4372973,-0.62249243,66.0249,1.6224581,0.55833083,0.20525073
1764921372948,-0.035913024,-10.99178,59.862225,3.5063665,0.516792,0.21013765
1764921373000,1.5849615,-25.222916,55.83039,4.7024407,0.7134906,0.20525073
1764921373057,-3.2441432,-54.484848,24.938005,7.2448616,1.3658947,1.2498302
1764921373111,0.6631939,-56.357113,5.1882353,7.626042,1.3133603,1.7311921
1764921373164,3.7349546,-52.36119,-6.4284315,7.375587,0.77213365,1.9401081
1764921373217,5.6215854,-43.54095,-13.026852,6.465398,0.35796702,1.7189748
1764921373269,5.0134583,-36.68635,-18.260576,5.969375,0.1881465,1.609019
1764921373324,8.65025,-31.869219,-26.34819,5.376836,0.23945917,1.4074335
1764921373377,14.31972,-16.52478,-51.11142,3.2705724,0.18203785,0.6621779
1764921373432,15.4641485,-5.533,-60.7409,1.5418239,0.7867944,0.36896262
1764921373484,17.611748,-4.8817773,-60.9468,-0.5448918,-1.7886134,-0.36896262
1764921373542,9.150639,-26.82703,-52.0691,-4.456873,-1.6224581,-1.0629056
1764921373595,10.491392,-41.795578,-40.93606,-6.1294217,-1.9083431,-1.0103711
1764921373648,6.921637,-57.635616,-28.14384,-7.3951344,-1.8399261,-0.90285885
1764921373700,4.644751,-76.188286,-3.9240966,-8.5838785,-1.5760323,-0.4654793
1764921373753,7.2424603,-77.92887,5.9639564,-8.618087,-1.5906931,-0.05131268
1764921373807,1.673547,-71.536354,22.85505,-8.497135,-0.74036866,0.008552114
1764921373864,5.269638,-37.782898,64.61951,-6.495941,-1.4428637,0.5925393
1764921373916,13.333309,-20.161573,72.778946,-4.477642,-1.5491543,0.59986967
1764921373970,9.349358,-5.7389016,77.5889,-2.438574,-0.037873644,0.47403142
1764921374023,6.069301,-5.674258,64.243614,1.749518,0.64751714,-0.05131268
1764921374079,4.7764325,-11.628637,56.752155,3.199712,0.9822713,-0.0842994
1764921374134,5.547365,-34.20596,39.712624,5.525887,1.0384709,0.0012217305
1764921374187,5.377377,-44.01261,26.439169,6.4287457,1.7140878,0.17348573
1764921374240,2.1667526,-46.9072,13.170504,6.857573,2.1563544,0.516792
1764921374293,1.910573,-46.643837,-2.918532,6.8563514,1.097114,1.4672983
1764921374345,2.9400797,-43.89769,-8.207323,6.56558,0.77213365,1.5919148
1764921374398,4.8865657,-39.65756,-13.606248,6.1550784,1.1863003,1.7531832
1764921374451,9.033323,-26.989836,-28.201302,4.8930306,-0.029321533,1.6578883
1764921374503,10.924743,-19.725828,-34.20596,4.021937,0.49235737,1.4587462
1764921374557,16.278177,-11.753136,-46.574406,2.9651399,-0.36163223,1.0580186
1764921374614,15.710752,-4.414908,-62.598797,-0.28955013,-0.643852,-0.07086037
1764921374667,17.056293,-10.58716,-57.963623,-2.4104743,-1.7299703,-0.6084218
1764921374720,13.453019,-26.987442,-49.95981,-4.329813,-1.1630874,-0.93218035
1764921374772,4.853047,-60.472748,-31.701624,-7.283957,-1.6371188,-1.1679744
1764921374827,4.7884035,-73.45411,-19.36191,-8.27478,-1.3732251,-0.79290307
1764921374882,2.6839,-78.44363,-8.614338,-8.897863,-1.7971655,-0.48991394
1764921374934,2.861071,-78.44363,31.71599,-9.048136,-1.5833627,0.1600467
1764921374987,8.379706,-58.066574,59.92687,-8.074417,-1.7018706,0.52534413
1764921375040,14.642938,-32.44622,78.1228,-5.9192843,-1.4110987,0.56688297
1764921375096,7.45315,-0.35673606,72.54671,-1.2278391,0.3286455,-0.089186326
1764921375148,1.7262194,1.7956513,64.167,0.55833083,0.9077458,-0.24312437
1764921375201,-3.3734303,-4.072537,52.978897,2.0952678,1.505172,-0.1001819
1764921375253,-1.7980455,-12.873623,39.217022,4.062254,1.0677924,0.47769663
1764921375305,0.37588966,-21.68189,36.58101,4.84294,0.45204028,0.45570546
1764921375359,-0.7374141,-31.52206,34.469322,5.5918603,0.75869465,0.57787853
1764921375412,0.49320555,-51.832073,14.875175,7.064046,1.505172,0.9615019
1764921375465,1.2449849,-54.231064,3.502717,7.254636,1.6041322,1.3744467
1764921375518,3.2345665,-52.966923,-4.9105077,7.1471233,1.3720033,1.6786577
1764921375572,8.422802,-41.903316,-23.118412,6.243043,0.956615,2.0769417
1764921375624,11.820174,-33.731907,-33.755848,5.4415874,0.4972443,1.9095647
1764921375677,14.537593,-23.082499,-45.18098,4.3896775,0.004886922,1.5503759
1764921375734,18.543093,-6.2512608,-61.787163,1.2095132,0.18692477,0.39584067
1764921375786,15.696386,-6.1076083,-62.61795,-0.9126327,-0.84665924,-0.27855456
1764921375838,13.560759,-16.493656,-57.738567,-3.0127873,-0.6267477,-0.65240407
1764921375891,10.500969,-48.832138,-41.268856,-6.4153066,-1.5992452,-1.0861185
1764921375943,8.327033,-66.70246,-33.068714,-7.651698,-0.75136423,-0.9932669
1764921375997,6.4044895,-78.44363,-20.788853,-8.626639,-1.3096951,-1.0091494
1764921376052,2.9783869,-78.44363,10.532093,-9.399995,-0.05375614,-0.30787608
1764921376103,1.5945383,-78.44363,47.103523,-9.137322,-2.6572638,-0.02321288
1764921376155,1.6424223,-50.5823,72.51558,-7.343822,-0.9101892,0.29932398
1764921376209,1.7884687,-24.368185,78.19702,-4.8502703,-0.52412236,0.4569272
1764921376263,-2.2529438,3.2489316,50.60145,-1.0348058,0.7171558,0.408058
1764921376316,0.011971008,3.3686419,34.014423,-0.013439035,0.65484756,0.48380527
1764921376369,1.5227122,2.099715,12.8448925,0.6939429,0.064751714,0.31398472
1764921376422,1.3599066,2.1212628,6.325481,0.61453044,0.6047566,0.29077184
1764921376478,0.8331822,2.837129,2.6431987,0.49480084,0.36041048,0.23701571
1764921376533,-0.272939,0.9552865,0.6895301,-0.028099801,-0.4202753,0.13072516
1764921376585,-1.5825673,-2.1787236,7.9104424,-0.23701571,0.043982297,0.16615535
1764921376637,0.6536171,0.4213795,6.859388,-0.23335053,-1.2229522,0.12339478
1764921376690,0.641646,0.6943185,10.864887,-0.6976081,0.062308256,0.35308012
1764921376743,1.0031705,0.0047884034,14.391546,-0.68661255,1.237613,0.26267207
1764921376797,-1.3718776,1.3790601,14.810532,-0.39095375,-0.31887165,0.08674286
1764921376851,-1.6232687,1.7477672,13.476961,-0.0036651916,0.13072516,0.25534168
1764921376904,-1.328782,1.151611,12.890382,0.112399206,0.57910025,0.344528
1764921376956,-3.0310593,1.5801731,12.313379,0.2406809,0.55833083,0.3567453
1764921377011,-1.697489,1.9081788,8.599973,0.3652974,-0.13927728,0.42149702
1764921377065,-0.7589619,2.1906946,7.788338,0.3933972,-0.8026769,0.41172317
1764921377118,1.520318,1.6136919,7.273585,0.37140608,-0.5888741,0.44593164
1764921377171,3.3399115,1.6424223,8.396465,0.28221974,-0.3005457,0.29810223
1764921377224,1.2737153,2.1284454,8.269572,0.2321288,0.25534168,0.23457226
1764921377282,3.964798,3.0885203,10.376471,0.14905111,0.2773328,0.17837265
1764921377335,1.5346833,1.8555063,8.987833,0.1441642,0.45814893,0.05375614
1764921377387,-0.31364042,2.3630772,9.0716305,0.118507855,0.56321776,0.039095376
1764921377440,-0.82121116,1.9393034,8.932767,0.12461651,0.25411993,0.037873644
1764921377493,-0.1340753,2.4109612,8.872911,0.09285152,0.03176499,0.06963864
1764921377551,0.011971008,2.0590134,8.6095495,0.081855945,-0.012217305,0.037873644
1764921377603,0.04309563,2.3175871,8.6334915,0.057421334,0.018325957,0.017104227
1764921377655,-0.4285621,2.4516625,8.971074,0.03176499,-0.14660765,-0.0061086523
1764921377708,-0.8355764,2.4372973,9.14585,0.02443461,-0.014660766,0.014660766
1764921377761,-0.12928689,2.5929205,8.602366,0.030543262,-0.13805555,0.02687807
1764921377816,-0.088585466,3.1411927,9.28232,-0.07452556,0.5363397,0.018325957
1764921377870,0.050278235,2.4061728,9.581595,-0.07696902,0.25411993,-0.029321533
1764921377923,0.10055647,1.6711528,9.25359,-0.035430185,-0.07819075,-0.105068825
1764921377975,-1.2593501,2.480393,8.583213,-0.042760566,0.13072516,-0.096516706
1764921378033,-1.2497733,2.2649148,8.147469,-0.07452556,0.10629055,-0.073303826
1764921378089,-1.376666,2.207454,8.889671,-0.17348573,0.10262536,-0.014660766
1764921378141,-1.7621324,2.3942018,8.836999,-0.18692477,0.111177474,0.02687807
1764921378194,-1.8794483,2.2625206,9.375694,-0.23701571,-0.21991149,0.13927728
1764921378250,-1.0965444,-2.0590134,9.868899,-0.16982053,-1.0091494,0.6218608
1764921378303,0.17238252,-2.8060043,7.6614456,-0.02565634,-1.5393804,0.79290307
1764921378356,2.078167,-2.5809495,4.855441,0.0012217305,-1.5357152,0.8881981
1764921378408,1.8339585,-0.32800564,5.9041014,-0.43982297,-0.089186326,0.7318166
1764921378461,-0.08379706,0.81642276,6.933608,-0.6047566,0.51923543,0.5644395
1764921378514,-0.82599956,1.9416976,7.548918,-0.6731735,-0.5119051,0.4007276
1764921378572,1.1755531,0.35194764,9.016563,-0.77824235,-0.70005155,0.40561453
1764921378624,1.7741034,-0.5554548,10.943896,-0.78801614,-0.267559,0.3640757
1764921378676,0.50996494,-1.3958195,13.06037,-0.7244862,0.91751957,0.33964106
1764921378729,0.21068975,-1.328782,12.50731,-0.4373795,0.7867944,0.2406809
1764921378784,-0.6464345,-0.7469909,12.567164,-0.3359759,0.5644395,0.19425514
1764921378836,0.4429273,-0.78290397,11.267113,-0.23579398,0.40683624,0.2565634
1764921378890,0.6368576,0.21547815,8.789114,-0.22479841,0.52534413,0.22357668
1764921378942,0.56982,1.376666,8.559271,-0.33475417,0.2968805,0.14660765
1764921378994,7.1969705,0.18914193,8.956709,-0.39950588,-0.3481932,0.05497787
1764921379055,3.0765493,-1.6089035,13.584701,-0.18081611,0.5180137,-0.34330627
1764921379108,-0.16998832,-0.92176765,11.224017,-0.013439035,0.6450737,-0.38362336
1764921379161,-1.6184803,-0.8810662,8.3150625,0.012217305,0.8356637,-0.2846632
1764921379213,0.009576807,-0.08140286,9.01417,-0.05009095,-0.07819075,-0.18570304
1764921379267,-0.5674258,-0.89303726,11.824963,-0.07452556,0.008552114,-0.19547687
1764921379322,-1.6112977,-0.8810662,10.323798,-0.019547688,0.14782938,-0.14905111
1764921379376,-0.91937345,-1.6759412,9.31105,0.10751228,-0.18203785,-0.10262536
1764921379433,-0.035913024,-1.8148049,8.39886,0.09896017,-0.36651915,-0.07696902
1764921379487,1.0510546,-1.1707647,10.041282,-0.02565634,-0.05497787,-0.11728613
1764921379539,-2.2002714,-1.400608,10.630256,0.008552114,-0.037873644,-0.11362094
1764921379591,-0.641646,-1.2114661,9.730036,0.052534413,-0.47036624,-0.043982297
1764921379643,0.5267244,-1.8100165,11.003751,0.07696902,-0.59864795,-0.009773844
1764921379700,2.1787236,-0.94810385,8.702923,0.10140363,-0.40194935,-0.052534413
1764921379752,0.6584055,-0.8714894,9.378088,0.047647487,0.16493362,-0.06841691
1764921379808,0.90261406,-1.0079589,9.545682,0.039095376,0.061086524,-0.05131268
1764921379860,0.7445967,-1.2737153,9.907207,0.042760566,-0.1282817,-0.057421334
1764921379912,0.50757074,-1.4460979,9.184157,0.05375614,-0.042760566,-0.030543262
1764921379972,0.4165911,-1.5466543,9.576807,0.017104227,-0.13316862,-0.02565634
1764921380027,0.82121116,-1.30484,9.471462,0.013439035,-0.02321288,-0.0012217305
1764921380079,1.1611878,-1.0342951,9.349358,0.013439035,-0.10751228,-0.009773844
1764921380138,1.7836803,-0.6536171,8.080431,0.008552114,-0.04642576,-0.004886922
1764921380193,1.079785,-1.1875241,9.794679,-0.02443461,0.02076942,-0.02565634
1764921380244,1.352724,-0.9768343,10.218452,0.065973446,0.059864793,-0.08307768
