t,ax,ay,az,gx,gy,gz
1764804362387,-1.0654198,7.575254,5.6359506,-0.02565634,0.0061086523,-0.034208454
1764804362438,-1.079785,7.6015906,5.9878983,-0.081855945,0.03176499,-0.014660766
1764804362490,-1.2018893,7.6255326,5.901707,0.014660766,0.08307768,0.034208454
1764804362541,-0.9672575,7.714118,5.829881,-0.009773844,0.05131268,0.02443461
1764804362594,-1.0941502,7.630321,5.9184666,-0.008552114,0.061086524,0.030543262
1764804362647,-1.0749966,7.716512,5.9280434,0.007330383,0.06841691,0.058643065
1764804362698,-1.283292,7.762002,5.7604494,-0.021991149,0.09285152,0.09896017
1764804362750,-1.0965444,7.73806,5.9064956,-0.04886922,0.14660765,0.16615535
1764804362803,-0.8379706,7.8888946,5.90889,-0.05131268,0.12950343,0.11362094
1764804362857,-1.1228806,7.630321,5.60722,-0.042760566,0.14049901,0.05497787
1764804362936,-1.1109096,7.539341,5.9400144,-0.06963864,0.16249016,0.1160644
1764804362988,-1.0295067,7.4004774,5.616797,0.05497787,0.09407325,0.10873401
1764804363040,-0.63206923,7.4627266,5.437232,0.02443461,0.103847094,0.095294975
1764804363095,-0.9600749,7.290344,5.734113,-0.05009095,-0.019547688,-0.08674286
1764804363148,-0.80684596,7.40766,8.166622,-0.15515977,-0.42760566,0.0061086523
1764804363201,-1.9871874,7.5225816,7.398083,0.5705481,-0.61208695,-0.008552114
1764804363255,-1.9632454,7.2065473,6.619968,1.1557571,-0.7538077,0.29565877
1764804363308,-0.94810385,7.8529816,5.5497594,1.5357152,-1.5149459,0.07696902
1764804363362,-0.7469909,8.046912,4.5154643,1.3927728,-0.71959925,0.3652974
1764804363421,1.0319009,9.0476885,2.5881321,0.8246681,-0.63041294,0.25167647
1764804363474,1.7262194,9.263166,2.1332338,0.3213151,0.04153884,0.16249016
1764804363527,2.0685902,9.428367,2.5019407,0.19792034,0.267559,0.14660765
1764804363580,0.92176765,8.815451,3.4021606,0.16493362,0.57787853,0.49235737
1764804363634,1.3910311,8.968679,3.2968156,0.376293,0.48380527,0.48380527
1764804363687,1.5179238,9.3421755,2.4851813,0.43127087,0.37995818,0.3494149
1764804363739,1.4676456,9.622296,2.0805612,0.2919936,0.1966986,0.267559
1764804363792,1.8315643,9.907207,1.6927006,0.3640757,-0.05375614,0.20647246
1764804363856,1.1923125,9.646238,2.0015526,0.0036651916,0.29443705,0.21624629
1764804363909,1.2761095,9.421184,2.8179753,-0.0036651916,0.27488935,0.31398472
1764804363961,0.8834604,9.045294,3.064578,0.05497787,0.267559,0.25534168
1764804364016,1.1444284,9.021352,2.9161377,0.20769419,0.105068825,0.4373795
1764804364068,3.2609026,10.127473,2.123657,-0.058643065,0.73426,0.50823987
1764804364121,3.691859,10.000581,0.82360536,0.09773844,0.766025,-0.23579398
1764804364174,1.9608512,9.397242,0.9552865,-0.816116,1.749518,-0.49846604
1764804364227,-0.033518825,8.403648,4.1706996,-1.4770721,1.645671,0.10873401
1764804364280,0.81881696,8.700529,4.644751,-0.5900958,0.84788096,0.25778514
1764804364336,1.1779473,8.851364,4.3358994,-0.05009095,0.28099802,0.24312437
1764804364388,1.0893618,9.004593,3.9217024,-0.15760323,0.3848451,0.19425514
1764804364441,1.127669,9.030929,4.0462008,-0.1001819,0.24678956,0.08307768
1764804364494,0.9504981,9.143456,4.096479,-0.112399206,0.36285394,0.035430185
1764804364546,0.38067806,9.258378,3.7253778,-0.17104226,0.55833083,-0.012217305
1764804364599,0.009576807,9.835381,3.7086184,-0.25411993,0.6963864,-0.034208454
1764804364655,-0.095768064,10.539276,3.4691982,-0.18203785,0.88208944,-0.07696902
1764804364708,-0.51714754,11.247959,4.697424,-0.035430185,0.7318166,-0.48624873
1764804364761,-1.2593501,10.520123,3.9432502,0.09285152,-0.014660766,-0.9602802
1764804364821,-2.801216,7.017405,4.5872903,-0.53878313,-0.05131268,-0.41416663
1764804364873,-1.3934253,6.7564373,6.066907,-0.05131268,-0.9810496,-0.1881465
1764804364924,-0.15083471,5.78918,4.915296,0.39584067,-1.382999,0.19303341
1764804364977,2.0566192,6.8809357,5.2528787,-1.7238617,-0.516792,0.82711154
1764804365031,1.5801731,5.9064956,4.3478703,-0.48747048,-1.3451253,0.7134906
1764804365084,1.7645266,6.009446,5.758055,-0.7733554,-1.2840388,0.9297369
1764804365140,2.8874073,5.659893,5.092467,0.9297369,-1.5980235,0.7635816
1764804365193,4.1419687,6.1890116,3.6248214,1.3952162,-2.13925,1.0604621
1764804365246,5.161899,7.4028716,4.5872903,0.63529986,-1.1765264,0.7696902
1764804365300,7.967903,9.330204,2.4660277,0.97249746,-1.7018706,0.7648033
1764804365354,8.63828,9.500193,3.7541082,0.4728097,-0.9053023,0.1160644
1764804365407,8.602366,10.577583,4.285621,0.84665924,-0.75625116,-0.47158796
1764804365468,11.645397,13.295002,5.851429,1.0580186,-0.32498032,-1.9107865
1764804365523,15.306131,15.320497,6.2464724,1.0506883,-0.3359759,-3.072652
1764804365578,11.310209,8.832211,2.432509,1.4037683,0.5815437,-6.0267963
1764804365632,5.592855,3.8402996,-0.076614454,1.6065756,0.43860126,-6.7024136
1764804365685,-2.966416,-2.303222,-1.9057846,1.4062119,0.4361578,-6.57291
1764804365740,-7.465121,-5.4204726,-3.2034419,0.5852089,0.8894198,-4.1648793
1764804365792,-11.08276,-6.7324953,-5.473145,1.0103711,0.073303826,-2.9749138
1764804365844,-12.698846,-6.7324953,-5.434838,-0.19181168,0.40561453,-1.0238101
1764804365897,-17.00362,-14.800955,-6.5936313,0.06352998,-0.43493605,1.0592403
1764804365950,-34.596214,-41.56813,-8.985439,0.7648033,-2.35794,6.1123176
1764804366003,2.0254946,-54.219093,-5.451597,-0.18325958,-0.2932153,15.932588
1764804366057,49.758694,8.678981,30.418333,-5.13982,2.6804767,8.539896
1764804366109,36.870705,19.428947,16.019604,-1.7983873,2.1160371,2.502104
1764804366162,21.945253,12.998121,14.53041,-0.3933972,-0.008552114,-1.3329079
1764804366216,18.454506,11.171345,11.262324,0.7892379,-0.47891834,-2.0720549
1764804366269,17.815254,7.055712,13.141773,2.4764478,-0.79045963,-5.551543
1764804366322,14.760254,4.0054994,6.981492,2.4312437,0.9285152,-6.9015555
1764804366379,2.4995465,-2.932897,-2.7461493,3.0115657,0.6010914,-7.266853
1764804366432,-5.896919,-5.9519854,-3.6703112,2.043955,0.766025,-6.309016
1764804366487,-8.259995,-6.3230867,-6.093243,1.4257594,0.91507614,-4.3579125
1764804366540,-9.627085,-1.8938135,-7.4028716,0.81000733,0.19425514,-1.2938126
1764804366593,-8.92319,0.60333884,-5.920861,-0.015882496,0.35796702,-0.5522222
1764804366645,-7.687782,1.3503298,-5.377377,-0.17837265,0.14660765,-0.07086037
1764804366696,-8.094796,-0.60094464,-6.0142345,-0.064751714,-0.54244834,0.87964594
1764804366748,-11.731588,-8.130709,-9.832987,-0.07452556,-0.79168135,1.1117748
1764804366801,-34.545937,-29.623457,-13.072341,-0.9077458,-1.7702875,2.8173106
1764804366860,43.509827,-64.03532,-0.2753332,-6.0952134,2.6462681,19.519588
1764804366912,70.73908,1.8531121,60.00827,-9.809274,1.6481144,12.384682
1764804366965,51.96615,22.40015,31.646559,-0.9896017,1.6847663,1.7580702
1764804367016,24.147919,8.221688,20.736181,3.1410692,0.5729916,-6.9785247
1764804367067,15.195998,0.5243302,12.073959,3.8227947,1.5760323,-7.756767
1764804367118,9.263166,-4.0174704,5.2409077,4.3456955,1.3610078,-7.897266
1764804367171,-0.30406362,-9.3421755,-2.3870192,4.8099527,0.70005155,-7.422013
1764804367225,-10.381259,-6.129156,-8.39886,1.2168436,1.4306464,-3.7274997
1764804367277,-10.54167,-4.024653,-7.991845,0.7965683,0.42760566,-1.9388863
1764804367330,-9.109938,-1.1133038,-5.485116,-0.21380283,0.73426,-0.7501425
1764804367382,-8.286332,0.91697925,-5.4300494,0.2846632,-0.3213151,0.204029
1764804367435,-7.908048,0.4189853,-5.7987566,-0.07819075,-0.29077184,0.68294734
1764804367487,-9.229648,-2.3391352,-7.687782,-0.14049901,-0.6133087,1.0629056
1764804367544,-31.390379,-39.382225,-12.931084,-0.36651915,-4.125784,6.944316
1764804367595,19.517532,-52.53836,-6.8162923,-2.0964894,-1.5589281,17.8898
1764804367646,77.34947,-25.962723,39.035065,-11.111639,8.609535,19.222708
1764804367699,34.95295,17.02038,24.02342,0.89919364,-0.07574729,-4.169766
1764804367753,27.480648,12.023681,21.404163,1.8057177,1.1936307,-7.27174
1764804367806,21.416134,3.3255463,9.169792,3.9767327,1.0848967,-9.0383625
1764804367862,0.8331822,-7.560889,-1.7669208,3.8826594,1.2412782,-8.0341
1764804367915,-6.3206925,-10.141838,-5.291186,2.7281241,0.88697636,-6.0035834
1764804367968,-9.445126,-7.881712,-7.1945763,1.7153096,0.27977628,-3.2840116
1764804368021,-9.390059,-3.371036,-7.4627266,-0.087964594,0.6658431,-0.50701815
1764804368073,-10.06283,-2.3343468,-6.0645127,-0.44104472,0.15271631,0.043982297
1764804368127,-8.35337,-1.13964,-5.1379566,-0.3921755,-0.19303341,0.893085
1764804368180,-8.983045,-3.2202013,-8.054094,-0.24312437,-0.77091193,1.9205604
1764804368233,-22.979548,-17.575834,-10.512939,-0.7134906,-1.6652187,2.2418754
1764804368286,-24.00666,-34.63452,-9.481039,0.34697145,-3.9144244,8.621752
1764804368340,67.04483,4.5920787,40.99831,-8.589987,3.4147367,11.8251295
1764804368396,47.03888,22.577322,23.640348,0.4092797,-0.10140363,2.3677137
1764804368447,30.782251,18.715475,17.460913,1.3121386,-0.32620203,-4.169766
1764804368499,18.045097,4.256891,8.674192,3.1154127,1.6676621,-7.9766784
1764804368552,8.441956,-0.79726917,4.2281604,3.3353243,2.2797492,-8.086634
1764804368606,0.90021986,-4.903325,-2.408567,3.4477234,1.9926424,-7.039611
1764804368659,-8.844181,-7.2807674,-7.2592196,2.0244074,0.9126327,-3.7201693
1764804368712,-10.754754,-5.329493,-7.041347,1.1801916,0.675617,-2.130698
1764804368766,-8.99741,-3.083732,-7.821857,0.72326446,0.593761,-0.9443977
1764804368820,-8.046912,-0.39264908,-6.4068837,-0.018325957,-0.028099801,0.31642818
1764804368873,-8.698134,-1.0893618,-5.3199162,-0.47158796,-0.2125811,0.70249504
1764804368927,-9.991004,-3.383007,-5.793968,-0.44715336,-0.5510005,1.3634512
1764804368981,-18.583794,-18.904617,-7.627927,-0.6206391,-1.6346754,4.3542476
1764804369034,-7.4603324,-27.219679,-4.618415,-0.8210029,-1.5809193,9.293704
1764804369087,21.423317,-35.843594,-1.9871874,-4.750088,2.2052236,14.095104
1764804369140,43.404484,21.121647,41.161114,-1.078788,-4.9663343,3.5735617
1764804369194,31.67529,17.776947,28.550856,0.6927212,1.6249015,-1.4147639
1764804369247,27.937939,12.528857,19.038692,3.200934,0.9737192,-4.3579125
1764804369301,11.204864,-2.2816741,5.365406,3.9229765,1.3329079,-6.957755
1764804369354,3.5936968,-5.305551,0.33518824,3.6102135,1.2339478,-6.3664374
1764804369407,-2.315193,-6.2392898,-3.5242648,3.4831536,0.8906415,-5.177694
1764804369460,-9.188946,-4.867412,-7.9822683,2.670703,0.3848451,-3.1936035
1764804369515,-11.437101,-3.964798,-9.141062,1.6896533,0.19303341,-1.7788396
1764804369567,-8.212111,-2.0685902,-8.8777,0.9773844,-0.43493605,0.02076942
1764804369619,-7.6829934,-2.0470424,-8.061277,-0.33475417,-0.3371976,1.4001031
1764804369673,-9.136273,-4.6806645,-6.861782,-0.75991637,-0.6609562,2.1025982
1764804369725,-14.202404,-12.500127,-8.540117,-0.8539896,-1.0091494,3.0665436
1764804369782,8.130709,-36.461296,-0.31124622,-3.363424,0.4605924,14.548367
1764804369835,67.82534,-16.721106,24.57648,-9.367007,5.4929004,16.192816
1764804369887,57.877434,18.938135,36.772545,-4.9247956,0.6719518,4.2785
1764804369939,29.70486,8.360553,15.442601,2.1966715,1.8558086,-3.7824776
1764804369992,22.081722,0.91937345,11.722012,3.299894,0.5216789,-6.1892867
1764804370046,14.5328045,-4.295198,8.00621,3.3304374,1.3219124,-7.316944
1764804370104,-2.4995465,-7.9032598,-2.9352913,4.11601,0.06352998,-6.280916
1764804370157,-7.690176,-6.2392898,-6.4380083,2.8075366,0.8258898,-5.0787334
1764804370214,-10.359711,-4.249708,-8.240842,2.140472,0.5412266,-3.4220672
1764804370269,-9.588778,0.7134721,-7.752425,0.5180137,0.05009095,-0.54244834
1764804370322,-7.5944076,2.0901382,-6.409278,-0.3042109,0.29932398,0.040317107
1764804370378,-7.747637,0.94331545,-4.5537715,-0.29565877,-0.18448131,0.49602258
1764804370431,-8.779537,-2.078167,-7.177817,0.021991149,-0.7367035,0.7770206
1764804370485,-13.019669,-8.566454,-9.461885,-0.31031954,-1.3927728,1.187522
1764804370549,-6.0501475,-38.233006,-4.3047748,-1.1545353,-3.4025195,11.279016
1764804370602,33.444603,-46.021343,10.371682,-5.3976054,3.1007519,17.396221
1764804370655,78.37898,7.48188,21.760899,-2.460565,-0.5705481,12.686449
1764804370708,37.79487,8.066066,25.20855,3.4611626,-0.77579886,-4.280944
1764804370763,30.813375,0.02633622,17.413029,3.681074,1.0238101,-6.6889744
1764804370823,11.659762,-11.695675,3.7684734,4.547281,2.1917844,-9.362121
1764804370876,2.4612393,-13.761871,-1.9560628,5.20335,1.2803736,-8.748812
1764804370930,-7.8984714,-16.338032,-7.386112,5.0921726,0.21868975,-7.516086
1764804370982,-12.943054,-5.753267,-9.730036,0.6743952,0.91507614,-0.9602802
1764804371036,-7.4268136,-0.33279404,-8.034941,0.20158553,0.53023106,0.48502702
1764804371089,-5.839458,1.7262194,-8.101978,0.112399206,-0.037873644,0.4166101
1764804371141,-8.1163435,2.4492683,-4.6136265,-1.0726794,0.13927728,0.5155703
1764804371193,-8.054094,1.8770541,-4.783615,-0.5815437,-0.14172074,0.82711154
1764804371250,-9.284714,0.1388637,-5.4539914,-0.4813618,-0.073303826,1.1386528
1764804371304,-14.5088625,-11.499351,-9.65821,-1.7104226,0.98837996,2.737898
1764804371356,-10.081984,-20.58774,-8.908825,-3.0885346,-0.64873886,5.500231
1764804371409,8.714894,-27.873297,-0.29688102,-5.512448,-1.5296066,9.652893
1764804371462,50.951008,1.4197617,11.432313,-1.4721853,-3.5589008,9.738414
1764804371519,32.340878,16.970102,34.340034,-5.402492,1.6542231,2.3518312
1764804371572,35.63051,17.671602,30.274681,-1.0751228,1.3267993,-0.15882497
1764804371625,24.93561,1.2617443,18.413805,4.2650614,0.90408057,-4.8502703
1764804371677,22.725763,-4.120421,12.411542,5.0921726,0.75502944,-6.422637
1764804371741,16.90067,-9.272743,6.4164605,5.780007,0.7440339,-7.2216487
1764804371795,-0.2657564,-13.206416,-2.9017725,4.488638,1.1569787,-7.6480327
1764804371854,-4.122815,-14.71237,-3.4284968,5.9107323,-3.1496212,-5.9046235
1764804371907,-8.1402855,-7.477092,-5.580884,2.8344147,-0.13561209,-2.271197
1764804371960,-12.538434,-6.612785,-7.9391727,1.8228219,0.061086524,-1.8411479
1764804372013,-11.508927,-5.2720323,-7.797915,1.2351695,-0.75502944,-0.61086524
1764804372067,-8.848969,-1.2138603,-4.4460325,-0.2602286,-0.27000242,0.5900958
1764804372121,-7.97748,-1.067814,-4.5058875,-0.15149458,-0.10751228,0.6768387
1764804372174,-8.762778,-2.743755,-5.4683566,-0.21502456,-0.021991149,0.54244834
1764804372228,-9.126697,-15.62456,-7.153875,-1.5613716,-0.15882497,1.4624114
1764804372280,-19.129671,-28.009766,-9.631873,-2.1905627,-0.5216789,2.0366247
1764804372333,-19.021933,-46.095566,-6.907272,-3.6285396,-2.0916026,7.3377132
1764804372386,78.38616,-44.85537,21.267694,-3.4159584,-4.5020766,20.189096
1764804372439,78.42926,26.733656,20.676327,-4.202753,0.23823744,10.339505
1764804372493,61.02102,21.114466,37.735012,-1.2486086,-2.0073032,-0.06719518
1764804372546,41.14196,-5.104438,23.633165,3.105639,2.003638,-8.602204
1764804372603,30.856472,-17.975666,15.195998,5.8472023,1.3292428,-9.977873
1764804372660,9.176975,-21.871033,-5.674258,5.398827,0.5888741,-9.461081
1764804372713,-0.06943185,-24.384945,-5.3606176,3.218038,0.39461896,-7.842288
1764804372767,-6.694188,-20.475212,-3.7780502,1.7873917,1.577254,-4.872261
1764804372826,-12.167333,-9.923966,-10.151415,1.8423696,-0.112399206,-0.675617
1764804372879,-8.451532,-5.9304376,-9.536105,0.74036866,-0.28099802,0.21624629
1764804372931,-7.7548194,-3.9743748,-7.723695,0.11728613,-0.21991149,0.14782938
1764804372984,-9.289502,-5.281609,-6.7612257,0.02443461,-0.089186326,0.3921755
1764804373040,-8.513782,-6.3350577,-8.607155,-0.040317107,-0.16493362,0.7464773
1764804373093,-8.446744,-8.391677,-8.717288,-0.8454375,-0.09896017,1.0763446
1764804373145,-11.008539,-20.685904,-11.784261,-1.9572122,-0.2125811,2.017077
1764804373198,-10.919954,-27.997795,-6.6367273,-3.5393531,-2.0781636,4.7293186
1764804373251,-3.3303347,-41.59686,-5.722142,-4.828279,-1.8716911,8.244237
1764804373308,68.35685,-47.47702,15.284584,-3.3011158,-5.699373,17.795727
1764804373361,78.42926,16.043545,37.62009,-7.845953,4.741536,8.863655
1764804373414,56.06981,15.064317,39.161957,-0.3286455,-2.5949554,0.4373795
1764804373467,36.90662,-1.9033904,22.850262,4.238183,1.0482447,-7.286401
1764804373524,27.502195,-11.319786,17.884687,5.5148916,1.2302825,-9.34013
1764804373579,12.63899,-20.058622,0.1388637,5.7910028,2.5864034,-9.428094
1764804373631,7.711724,-22.419304,-5.2600613,4.9199085,1.7238617,-8.967502
1764804373682,-4.7500963,-26.147078,-5.9878983,4.6718974,0.1441642,-7.4806557
1764804373734,-8.470686,-21.35149,-4.999093,1.9572122,1.2412782,-4.183205
1764804373785,-9.255983,-11.439496,-9.844957,1.5784758,0.013439035,0.5119051
1764804373836,-7.553706,-7.240066,-9.081207,0.35796702,0.057421334,0.6133087
1764804373887,-7.711724,-6.943185,-10.350134,0.16982053,-0.18448131,0.6010914
1764804373938,-8.774749,-8.372523,-8.082825,-1.3475688,-0.3323107,1.4404203
1764804373989,-10.101137,-11.834539,-6.9527617,-1.8338175,-0.24556783,2.0500638
1764804374039,-12.1840925,-19.309237,-9.0429,-2.147802,-0.49968776,3.082426
1764804374090,-9.880871,-26.221296,-8.3150625,-3.1337388,-1.4697418,4.912578
1764804374141,15.394717,-50.187256,4.63278,-7.588168,-1.1386528,11.895989
1764804374192,35.73346,-47.647007,25.246857,-7.1898837,-2.8576276,14.737735
1764804374243,78.42926,2.908955,26.79351,-6.967529,3.8948767,12.960117
1764804374295,53.646877,13.771448,45.678974,-2.3823745,-2.7684412,2.0329595
1764804374346,38.146816,5.1810527,29.16377,3.5161405,1.3585643,-5.2155676
1764804374397,27.59557,-6.7085533,21.62922,5.6639423,1.7250835,-6.963864
1764804374448,23.489513,-13.692439,10.108319,7.4000216,0.48747048,-8.728043
1764804374499,7.2185183,-17.403452,-2.707842,4.880813,1.8961257,-8.900307
1764804374549,-1.4030021,-18.954895,-6.1004257,4.128227,1.3035865,-7.655363
1764804374600,-7.479486,-17.611748,-4.96318,2.3273966,2.0842721,-5.2888713
1764804374651,-9.495404,-16.745047,-7.97748,2.8588493,1.3451253,-2.737898
1764804374702,-8.9758625,-8.449138,-13.962984,2.3188446,-0.41905355,0.17348573
1764804374753,-6.7923503,-4.333505,-11.319786,0.3652974,-0.39950588,0.6939429
1764804374804,-6.579266,-3.4093432,-6.9120603,-0.75991637,0.017104227,0.5742133
1764804374855,-7.2065473,-4.6519337,-6.8426285,-0.516792,-0.25534168,0.5216789
1764804374906,-8.863335,-8.995016,-9.543288,-0.91996306,-0.57543504,1.269378
1764804374957,-9.232041,-14.681245,-10.419566,-1.5222762,-1.0482447,2.1734586
1764804375008,-9.940725,-23.614012,-9.16261,-3.167947,-1.1325442,3.9779544
1764804375059,11.911154,-52.84003,2.6862943,-6.3578854,-2.1184807,12.984551
1764804375110,47.556026,-53.639694,28.356924,-6.6853094,-3.4746015,17.93867
1764804375161,78.42926,-0.5410896,7.5920134,-4.159992,4.808731,12.78541
1764804375212,46.4116,12.145785,46.210487,-5.2571063,-2.07572,1.500285
1764804375263,38.90099,6.105214,20.992361,2.8991663,0.77579886,-4.9138002
1764804375314,25.232492,-2.3582888,17.827227,3.86189,0.74281216,-6.7024136
1764804375367,21.159954,-7.1754227,12.136209,5.1288247,0.1966986,-7.770206
1764804375420,12.246342,-15.059528,1.4915876,4.543616,2.0317378,-8.5276785
1764804375473,1.8459295,-19.1177,-4.9823337,5.0200906,1.210735,-8.39451
1764804375526,-6.423643,-18.203115,-4.3646297,3.3255503,0.9761627,-6.4434066
1764804375577,-13.570335,-13.113043,-11.528081,2.4007003,0.33108896,-1.9657644
1764804375631,-14.094666,-8.264784,-12.548011,0.9932669,0.15027285,-0.4569272
1764804375684,-9.524135,-3.9791632,-9.866506,-0.30909783,-0.06352998,0.7147123
1764804375738,-8.070854,-1.0821792,-5.4085016,-0.7672467,-0.33353242,0.4569272
1764804375795,-8.631097,-1.376666,-6.3901243,-0.59864795,-0.2883284,0.61941737
1764804375848,-7.517793,-2.9616275,-7.0700774,-0.7086037,-0.42149702,0.9126327
1764804375900,-17.599777,-16.888699,-13.199234,-0.21502456,-2.048842,1.2388347
1764804375953,-26.149471,-32.02484,-13.6014595,-1.5332718,-2.579073,3.7763689
1764804376005,4.7644615,-39.11168,-5.329493,-2.2565362,-3.145956,12.168436
1764804376064,53.90066,-1.7717092,19.189528,-1.717753,-5.852089,10.59729
1764804376116,43.991062,17.439365,22.991518,-1.6969837,0.689056,4.9223523
1764804376169,51.68363,25.352201,16.117765,-0.46303585,1.0690142,1.5063937
1764804376221,29.451075,9.734824,13.551182,0.68661255,3.4562755,-5.1202726
1764804376274,19.488802,2.3056161,10.824186,0.89552844,4.724432,-6.393316
1764804376327,12.150574,-3.383007,9.935937,2.1551325,4.415334,-5.9938097
1764804376381,7.477092,-9.600749,0.5602432,5.7665677,3.2119296,-4.8942523
1764804376434,-0.9528923,-15.085865,-11.020511,8.508131,-0.70616025,-4.393343
1764804376487,-6.2752028,-12.452243,-12.1840925,3.8423424,-0.3567453,-3.2705724
1764804376542,-13.637373,-8.623915,-9.385271,0.53023106,-0.8564331,-1.3304645
1764804376598,-11.7387705,-4.4819455,-5.5497594,0.24678956,-0.73548174,-0.26145032
1764804376651,-10.699687,-3.5098996,-7.752425,1.0189233,-0.7672467,0.15027285
1764804376704,-10.977415,-4.7548847,-8.889671,-0.16371189,-0.5009095,0.9236283
1764804376756,-11.915942,-6.38773,-7.929596,-1.3267993,-0.35063666,1.5344934
1764804376813,-11.504139,-8.978256,-5.2289367,-2.3726006,0.002443461,2.348166
1764804376868,-11.827356,-16.290148,-5.068525,-2.973692,-0.19181168,4.5619416
1764804376920,-4.4125137,-22.294806,-4.39336,-3.8863246,-0.45814893,6.895447
1764804376974,6.1746464,-29.712044,6.2823853,-6.1208696,-0.45204028,8.889311
1764804377031,57.51351,15.691598,50.294994,-10.257649,4.59615,6.263812
1764804377085,51.475338,21.040245,40.423702,0.065973446,0.30176744,1.3720033
1764804377138,37.14125,15.279796,24.602818,2.737898,-0.58276546,-2.2369885
1764804377191,16.807297,-2.932897,9.076419,4.5252895,-0.52656585,-6.508158
1764804377245,7.819463,-6.1530986,4.367024,4.0781364,0,-6.3713245
1764804377301,0.22505496,-8.604761,-2.72939,1.844813,1.2205088,-4.944343
1764804377354,-5.3079453,-10.108319,-5.106832,1.6749926,1.2156218,-4.7122145
1764804377408,-10.666168,-8.841787,-6.4068837,1.5796975,0.2919936,-3.154508
1764804377466,-12.169727,-2.765303,-7.1586633,1.0042624,-0.535118,-0.8943067
1764804377519,-13.496115,-1.0247183,-7.953538,0.91751957,-0.5143485,-0.41416663
1764804377572,-12.885593,-0.79966336,-8.209718,0.4092797,-0.35430184,0.16126843
1764804377624,-12.871228,-1.388637,-7.165846,-0.68294734,-0.25778514,0.63163465
1764804377677,-12.799402,-2.1045034,-4.6399627,-1.269378,0.034208454,1.1594223
1764804377731,-12.334928,-5.0613422,-4.5896845,-1.2742649,-0.09285152,1.781283
1764804377787,-11.915942,-12.859258,-4.5681367,-1.8423696,-0.019547688,3.885103
1764804377840,-7.36217,-15.646108,-2.3319526,-2.9810224,0.41538838,5.211902
1764804377894,1.0007763,-22.407333,-1.5155296,-3.4232888,-0.09040806,6.9382076
1764804377948,52.284576,-11.674128,13.52724,-3.726278,-2.2455406,10.330953
1764804378002,46.789883,9.837775,49.255913,-7.226536,2.6951375,4.1868706
1764804378057,43.629536,15.610195,38.261738,-0.27488935,0.5448918,1.0983357
1764804378114,30.430304,3.3039982,26.704926,3.6236527,0.13194689,-4.448321
1764804378167,20.233398,-4.3622355,16.326061,5.1874676,-0.73914695,-5.8191023
1764804378220,6.9527617,-11.370064,3.4883518,4.855157,-0.22968534,-6.486167
1764804378273,4.7405195,-12.236765,1.4437037,3.7604864,0.7440339,-6.111096
1764804378325,-3.787627,-14.05157,-5.571307,2.5082128,1.4587462,-5.3108625
1764804378382,-12.756307,-6.9862804,-7.2352777,0.91996306,-0.9651671,-0.81122905
1764804378435,-14.305355,-2.3942018,-5.092467,1.1362094,-1.1936307,-0.49846604
1764804378488,-11.903971,0.038307227,-7.309498,1.378112,-1.0164797,-0.008552114
1764804378541,-10.955867,0.90979666,-8.611943,0.009773844,-0.31398472,0.13927728
1764804378594,-10.939108,0.91697925,-6.909666,-0.47036624,-0.18692477,0.30665436
1764804378648,-10.359711,1.1324574,-5.233725,-0.8246681,-0.04642576,0.56688297
1764804378710,-9.40203,-0.61770403,-4.465186,-0.7867944,-0.02443461,1.1618657
1764804378764,-9.186552,-3.4859576,-3.4500446,-1.0433578,0.10751228,1.0238101
1764804378824,-11.020511,-12.356475,-3.4691982,0.7501425,-2.7256808,2.2919664
1764804378877,-13.565547,-20.446482,-6.435614,-1.8997909,0.79290307,4.9223523
1764804378929,-1.6376339,-37.112522,4.6686935,-7.012733,2.764776,11.063992
1764804378981,78.42926,-1.1109096,32.941822,-6.7696085,9.329134,9.852035
1764804379035,55.92855,7.9822683,43.308716,-0.30176744,-2.6413813,1.5100589
1764804379088,43.279984,7.043741,22.833502,2.6279423,-0.20280726,-2.0073032
1764804379147,21.473595,-2.8658595,14.834474,3.5894442,-0.8454375,-7.061602
1764804379203,14.104242,-7.5201874,9.607931,4.541172,-1.1606439,-8.644965
1764804379258,7.2568254,-9.500193,6.457162,4.483751,-0.88208944,-8.382293
1764804379312,-2.267309,-11.415554,-1.2258313,3.3878586,0.28588495,-6.9394293
1764804379364,-8.65025,-12.859258,-4.3047748,2.9382617,-0.27855456,-5.2742105
1764804379423,-13.476961,-10.520123,-5.8945246,1.9303342,-0.7049385,-0.52534413
1764804379476,-12.540829,-5.6982,-5.827487,1.505172,-0.1441642,0.20158553
1764804379529,-9.361329,-2.9233203,-7.7069354,1.7030923,-0.67073005,0.7611381
1764804379583,-9.698911,-0.9768343,-6.6534867,-0.30665436,-0.38362336,0.7611381
1764804379636,-10.060435,-0.81642276,-4.414908,-1.1447614,-0.22479841,0.9773844
1764804379689,-9.435549,-0.16998832,-2.9879637,-1.4501941,-0.09040806,1.2779301
1764804379742,-7.872135,-4.2880154,-4.072537,-0.79290307,-0.3359759,1.53205
1764804379795,-8.980651,-10.793061,-4.9895163,-1.3304645,-0.46792278,1.4465289
1764804379848,-11.554418,-18.420988,-1.6903064,-4.10868,0.81122905,2.5448647
1764804379906,-1.3311762,-34.349613,6.2847795,-5.9400535,0.643852,10.740232
1764804379959,34.26342,-43.916843,13.979744,-3.3096678,-1.4257594,17.321695
1764804380012,78.42926,9.378088,36.69114,-7.197214,3.957185,9.935112
1764804380065,46.10275,12.91193,22.325932,4.0292673,-1.8521434,-3.032335
1764804380134,29.731197,2.1811178,16.80969,4.81484,-2.3359487,-6.124535
1764804380187,10.5680065,-7.3166804,3.608062,4.1905355,-2.9761355,-8.207585
1764804380243,6.5505357,-7.1275387,2.5594015,1.9694295,-0.8491027,-7.316944
1764804380299,4.249708,-10.532093,-0.21068975,1.0115929,1.2425,-7.566177
1764804380356,-6.6103907,-12.164939,2.0685902,1.1838568,1.8301523,-5.776342
1764804380409,-7.869741,-13.773843,-3.8187518,3.6554177,-0.7623598,-4.3811255
1764804380462,-14.097059,-9.583989,-11.003751,2.356718,-0.45081854,-1.0348058
1764804380516,-13.182474,-6.9168487,-10.469844,0.9297369,-0.3921755,0.2846632
1764804380574,-10.69011,-4.177882,-8.034941,-0.21013765,-0.22968534,1.0396926
1764804380628,-8.822633,-1.2641385,-4.378995,-0.9627236,-0.13927728,1.1594223
1764804380680,-8.295909,-2.1691468,-4.2185836,-0.9053023,-0.0012217305,1.3695599
1764804380733,-8.832211,-5.068525,-4.0797195,-1.0201449,0.18325958,1.5027285
1764804380789,-14.451402,-27.198132,-9.509769,-2.1331415,-0.02321288,2.7171285
1764804380843,-12.897565,-41.936836,-3.3566709,-4.9944344,-0.22968534,6.387207
1764804380899,56.244587,-32.49171,20.681114,-5.7457986,1.7849482,14.517823
1764804380952,65.998566,16.582241,37.787685,-6.709744,0.6560693,8.206364
1764804381006,60.918068,27.68176,39.3104,-2.4862216,-0.37018433,2.5534167
1764804381064,26.704926,10.407595,19.28769,3.4171803,-0.9773844,-4.5448375
1764804381120,18.768147,1.7357962,11.638214,3.875329,-0.766025,-5.9400535
1764804381174,12.021287,-3.442862,6.8785415,3.7531562,-0.8381071,-6.206391
1764804381227,2.468422,-6.540959,1.30484,1.9559906,1.3035865,-5.6859336
1764804381280,-2.1667526,-7.410054,-1.4700398,1.6065756,1.5100589,-4.9480085
1764804381332,-8.815451,-7.551312,-4.584896,2.080607,0.6047566,-4.0036106
1764804381385,-11.580753,-3.41892,-4.369418,1.5711454,0.07452556,-1.1093313
1764804381437,-10.589554,-2.042254,-7.5106106,2.2504275,-0.72326446,-0.29565877
1764804381490,-12.272678,-1.2856863,-8.887277,1.5418239,-0.6267477,-0.073303826
1764804381547,-8.860941,2.837129,-6.5457473,-0.59864795,-0.43860126,1.1215485
1764804381600,-5.901707,5.3007627,-3.4715924,-0.77824235,-0.44715336,1.3671165
1764804381653,-5.171476,4.88896,-2.908955,-1.0555751,-0.02321288,0.8356637
1764804381708,-8.169016,-1.2330139,-1.328782,-0.95905846,0.5216789,0.65484756
1764804381763,-13.632585,-7.941567,-3.1292217,-0.7770206,0.7244862,0.453262
1764804381816,-17.451336,-17.901445,-9.890448,-0.05131268,-0.6621779,2.0891593
1764804381869,-0.6799533,-28.64423,5.0996494,-6.1758475,-0.1282817,9.5844755
1764804381929,26.55888,-37.52672,23.290794,-3.8643336,-2.1966715,15.916705
1764804381982,54.98045,10.536881,31.763874,-1.4953982,0.21868975,2.3652701
1764804382035,43.576866,10.654198,18.145655,1.3267993,-0.6072,-1.5234979
1764804382089,31.656136,5.6000376,17.621325,2.149024,-0.91874135,-4.134336
1764804382143,17.535133,-2.6599581,12.648567,3.2155948,1.1667526,-8.371297
1764804382195,13.757083,-5.3366756,9.940725,4.025602,2.356718,-8.806233
1764804382248,8.200141,-10.199299,5.995081,4.7256536,2.8356364,-9.049357
1764804382301,-0.92655605,-13.953407,-7.2687964,5.307197,1.4966198,-4.710993
1764804382353,-8.0684595,-12.670115,-7.8146744,3.517362,0.90041536,-2.7476718
1764804382409,-5.973533,-11.305421,-10.125079,3.8545597,-0.5497787,-0.9016371
1764804382462,-9.016563,-6.8689647,-9.349358,1.3561208,-0.12705997,0.25534168
1764804382514,-9.682152,-5.106832,-8.7771435,0.8491027,-0.34330627,0.65240407
1764804382567,-7.5561004,-3.0334535,-8.571242,0.51923543,-0.39950588,1.0519099
1764804382621,-6.3302693,-1.7669208,-7.398083,-0.8258898,-0.47158796,0.8588765
1764804382673,-6.3111157,-3.2561142,-5.8203044,-0.9602802,-0.91629785,0.6291912
1764804382731,-6.2392898,-7.7332716,-5.2624555,-0.42394048,-1.9058995,0.5216789
1764804382784,-15.9022875,-28.558039,-9.196129,-1.391551,-3.1618385,3.6651914
1764804382837,-9.076419,-39.286457,1.0271125,-7.0652676,-1.1032226,10.503217
1764804382903,78.39813,-17.877504,39.178715,-8.202699,2.9614747,15.018733
1764804382956,42.202595,10.6637745,58.272476,-5.494122,4.411669,2.9956832
1764804383011,31.15814,6.349423,36.648045,1.6065756,-0.6096435,-0.6719518
1764804383065,18.851944,1.1300632,23.551762,3.9706242,0.4202753,-5.0689597
1764804383119,10.010158,-6.4667387,15.030798,5.64806,-0.38728857,-6.2271605
1764804383171,7.8146744,-6.3302693,9.509769,5.9999185,-0.17837265,-5.9852576
1764804383227,-3.940856,-11.269507,-6.4140663,4.8649306,1.9486601,-6.119648
1764804383279,-5.995081,-10.989386,-9.892841,3.9266417,0.13561209,-4.0683627
1764804383333,-9.689334,-9.066842,-9.011775,1.749518,0.43860126,-2.928488
1764804383388,-12.138602,-5.2983685,-6.897695,1.1972959,-0.24190263,-0.70005155
1764804383445,-11.568783,-3.8019924,-9.200917,1.7067575,-0.82833326,0.50579643
1764804383502,-7.5201874,-0.021547815,-8.39886,-0.27122417,-0.376293,1.1630874
1764804383555,-7.132327,-0.11731588,-7.735666,-1.5919148,-0.21013765,0.9639453
1764804383608,-6.3901243,-1.8698715,-6.220136,-2.6413813,-0.06719518,0.9737192
1764804383665,-14.334085,-20.453665,-10.407595,-3.2791247,-0.82833326,1.9083431
1764804383719,-10.402806,-27.720068,-3.6727054,-5.4183745,-2.960253,6.340781
1764804383772,4.996699,-32.623394,8.848969,-5.852089,-3.5650096,13.231341
1764804383833,45.28393,9.801862,45.07803,-9.491624,6.2772512,3.4465017
1764804383885,28.62747,3.643975,32.010475,-0.784351,-1.5870279,0.042760566
1764804383939,13.237541,2.8898015,11.054029,2.8979447,-1.1765264,-1.7641789
1764804383996,9.988609,2.4109612,7.7667904,2.6853635,-0.80756384,-1.582141
1764804384051,5.707777,2.3511062,7.0221934,2.638938,-1.5931365,-1.6224581
1764804384103,-0.5722142,1.8291701,4.2305546,3.1972687,-0.40683624,-0.48258355
1764804384157,-1.0151415,3.0909145,-0.90500826,2.7061331,0.40683624,0.21624629
1764804384210,3.0095115,7.144298,-1.8626889,0.75991637,-0.30787608,0.9773844
1764804384266,3.2680852,5.7748146,1.0510546,-0.59498274,1.5234979,0.10995574
1764804384320,4.807557,5.9448028,2.384625,-0.12583824,0.56321776,0.5900958
1764804384372,5.995081,5.3007627,3.098097,0.8588765,-0.5338962,-0.1966986
1764804384424,6.2632318,6.706159,1.0965444,2.2015584,-0.8405506,-0.17715092
1764804384481,6.6056023,6.706159,0.60812724,2.8588493,-1.8167132,-0.22113322
1764804384534,6.220136,8.109161,-1.4149733,3.4746015,-1.3878858,-0.61941737
1764804384589,4.8267107,6.6989765,-10.228029,3.1520646,-1.2718215,-0.8491027
1764804384642,4.050989,6.265626,-9.871294,1.9523253,-0.72326446,-0.87964594
1764804384703,4.2066126,6.3087215,-10.072407,1.1239921,-0.37018433,-0.8356637
1764804384755,4.6232033,6.631939,-8.674192,0.3359759,-0.052534413,-0.82833326
1764804384809,3.6128504,6.6415157,-6.9862804,0.073303826,0.14538592,-0.97005403
1764804384864,2.6192567,6.078878,-6.766014,0.3885103,0.1685988,-0.7367035
1764804384920,1.9800048,5.571307,-6.9407907,0.5363397,-0.07941248,-0.30176744
1764804384973,1.9800048,5.2983685,-6.5337763,0.38362336,0.15271631,0.028099801
1764804385027,3.7062242,4.972757,-8.12592,0.56321776,-0.65118235,1.1435398
1764804385080,6.1985884,6.6606693,-8.623915,-0.33964106,0.56199604,-0.07696902
1764804385133,5.973533,6.483498,-9.7324295,-0.10873401,0.2003638,-0.2932153
1764804385186,1.9249382,5.1786585,-7.07726,-0.4654793,-0.54244834,-0.7867944
1764804385240,1.2497733,5.2361193,-6.7564373,-0.50335294,-0.535118,-0.44959682
1764804385292,1.8148049,5.765238,-5.8083334,-0.5155703,-0.08674286,0.009773844
1764804385345,2.8682537,6.5337763,-6.5936313,-0.018325957,-0.081855945,-0.039095376
1764804385398,2.801216,6.6606693,-6.7013707,-0.021991149,0.06719518,0.002443461
1764804385453,2.5713725,6.5241995,-7.015011,0.030543262,0.10751228,0.010995574
1764804385507,2.2601264,6.3829417,-6.603208,0.04642576,0.19058995,0.058643065
1764804385560,2.5761611,6.232107,-6.861782,0.28221974,0.0842994,0.081855945
1764804385612,2.8443117,6.069301,-7.4028716,0.39461896,0.16126843,0.030543262
1764804385667,3.2824504,5.911284,-7.953538,0.24801129,0.13927728,-0.010995574
1764804385721,3.4213142,6.3350577,-7.3071036,0.09040806,0.14049901,-0.118507855
1764804385774,3.1411927,6.3542113,-7.1083846,0.08674286,0.09285152,-0.1160644
1764804385827,2.5330653,5.841852,-7.773973,0.21502456,-0.05497787,-0.05009095
1764804385882,2.5833437,5.710171,-7.3286514,0.029321533,0.052534413,0.0036651916
1764804385940,2.1859062,5.391742,-6.7109475,0.09773844,0.32986724,0.47036624
1764804385993,5.8107276,6.727707,-9.974244,0.13316862,0.25411993,0.19547687
1764804386057,6.4404025,7.6614456,-13.170504,0.10140363,-0.14660765,-0.3042109
1764804386110,0.36391866,7.881712,-13.687651,-1.609019,-1.8228219,-1.2730432
1764804386163,-1.6328455,8.7532015,-11.571177,-2.2149973,-2.3860397,-1.1924089
1764804386224,-1.8124107,8.980651,-6.9144545,-3.3744197,-1.5430456,-0.766025
1764804386277,-2.4420857,5.7748146,-5.106832,-3.626096,-1.4062119,-0.9236283
1764804386329,-1.4173675,1.9560628,-4.721366,-3.549127,-1.210735,-0.34697145
1764804386385,-0.35194764,0.031124622,2.992752,-6.822143,1.1410962,1.6517797
1764804386439,1.2808979,1.757344,4.5801077,-6.2454863,1.4147639,1.7397442
1764804386494,3.2968156,3.1651347,7.7213006,-5.275432,0.12217305,1.269378
1764804386548,2.0829554,4.6112323,14.973337,-1.2705997,-1.3023647,0.625526
1764804386602,1.9201498,5.0661306,7.788338,1.8423696,-1.0433578,0.3567453
1764804386659,4.2880154,8.061277,5.7029886,-0.15271631,-0.70371675,0.8002335
1764804386711,3.7445314,6.7971387,6.256049,-0.14172074,0.39461896,0.64873886
1764804386765,3.526659,7.563283,4.261679,-0.0842994,-0.24923302,0.55955255
1764804386823,3.8474822,6.43322,6.7827735,0.41783184,-0.2602286,0.15515977
1764804386876,4.5058875,6.8210807,6.8450227,0.20647246,-0.017104227,0.28221974
1764804386929,6.4882865,7.9391727,8.817844,0.021991149,0.07819075,0.3359759
1764804386982,14.401123,11.2312,16.180016,0.64873886,-0.4569272,-0.77213365
1764804387039,15.195998,10.117896,21.830332,0.97005403,0.95294976,-1.890017
1764804387094,12.471396,5.6407394,17.106571,3.6835175,-0.047647487,-3.3793066
1764804387147,7.129933,-2.432509,6.445191,5.3194146,1.3842206,-4.724432
1764804387200,8.374918,-4.8482585,-1.4820108,4.9602256,2.162463,-5.0335298
1764804387258,0.21547815,-9.734824,-7.445967,5.729916,0.64873886,-5.996253
1764804387311,-12.907142,-9.7803135,-8.755595,1.0372492,0.3408628,-3.481932
1764804387364,-14.970943,-8.659827,-9.172187,0.874759,0.7122689,-1.8570304
1764804387426,-9.153033,-3.715801,-9.270349,-0.70738196,0.15027285,0.689056
1764804387479,-7.656657,-3.9217024,-7.4483614,-1.3365731,0.5009095,0.8894198
1764804387532,-9.358934,-7.9224133,-9.205706,-1.1606439,0.17348573,0.4972443
1764804387584,-13.735536,-25.77837,-9.586384,0.453262,-4.1954226,2.3762658
1764804387637,-8.599973,-36.576218,-3.5984852,-4.3774605,-0.74281216,9.2533865
1764804387691,0.92176765,-47.417164,6.7133417,-5.2363367,-1.073901,13.8861885
1764804387744,78.42926,8.037335,33.92105,-7.820297,6.6425486,9.57348
1764804387799,53.613358,10.453085,40.078938,-1.2938126,-1.7287487,0.47891834
1764804387855,55.679554,9.564836,24.70098,1.9779817,1.2180653,-2.4288
1764804387909,25.342625,-9.169792,9.607931,3.966959,0.12950343,-8.547227
1764804387962,17.860744,-13.077129,6.143522,4.1135664,0.68416905,-8.808677
1764804388014,16.759413,-14.702792,-0.2753332,3.562566,1.8985692,-9.238726
1764804388073,-3.6415808,-18.567034,-3.9217024,2.2101104,1.2486086,-7.3132787
1764804388140,-12.337321,-13.172897,-5.9567738,2.3041837,0.70371675,-3.5527923
1764804388192,-10.807426,-9.222465,-7.589619,2.2907448,0.61575216,-1.423316
1764804388243,-10.218452,-7.5680714,-8.983045,1.9999728,0.29565877,-0.7122689
1764804388296,-8.559271,-7.785944,-9.160215,1.5430456,0.07941248,-0.2687807
1764804388347,-9.545682,-11.283873,-9.864111,0.38240165,0.3359759,0.17470746
1764804388398,-10.187328,-15.286978,-12.337321,-0.15149458,-0.2846632,1.0800097
1764804388451,-9.045294,-19.577387,-11.7387705,-1.6029104,-0.86498517,2.2369885
1764804388503,-3.311181,-24.538174,-3.5122938,-4.7317624,-1.9156734,6.1257567
1764804388558,0.8595184,-21.176714,7.587225,-5.7580156,-2.3542747,8.756143
1764804388611,9.054871,-33.171665,7.7428484,-3.907094,-1.5161675,11.208156
1764804388663,78.33828,-12.696451,11.870452,-0.19914207,0.04886922,15.125024
1764804388717,78.42926,14.635755,18.571823,-2.3188446,-0.19547687,5.2363367
1764804388771,47.71644,13.816938,25.629929,-1.3329079,1.0311406,-2.6670377
1764804388826,21.24854,-4.6471453,12.770672,1.5198327,2.6328292,-7.7042327
1764804388880,10.807426,-8.856153,10.766725,2.366492,3.4037411,-7.6859064
1764804388934,6.155493,-11.092337,7.61835,3.8570032,2.3921483,-7.05305
1764804388987,-2.6743233,-13.129802,-5.583278,5.80322,-0.019547688,-6.5118237
1764804389040,-6.277597,-11.209652,-7.074866,3.6199875,0.59864795,-5.0970597
1764804389092,-8.583213,-10.089166,-9.0716305,2.992018,0.70371675,-3.8973203
1764804389147,-9.85214,-7.687782,-10.235212,2.2455406,0.002443461,-1.5271631
1764804389198,-9.425972,-7.0341644,-9.832987,1.9437732,-0.68661255,-0.87109387
1764804389249,-9.006987,-6.8809357,-8.377312,1.4049901,-0.74036866,-0.32620203
1764804389301,-9.921572,-10.022128,-6.5960255,-0.5155703,-0.11728613,0.08307768
1764804389354,-11.554418,-17.367538,-9.595961,0.15882497,-1.3206906,1.1301007
1764804389417,-8.827422,-33.176453,-6.1387334,-4.0463715,-1.2986995,7.3511524
1764804389469,4.656722,-47.113102,2.2601264,-8.830668,2.0635028,12.218527
1764804389520,16.98686,-57.726597,38.750156,-16.924633,6.134309,11.665083
1764804389572,51.525616,-29.1111,40.56496,-4.486194,-7.465995,15.60272
1764804389624,19.223045,3.4691982,52.174442,-1.1435398,-3.7910297,-1.7482964
1764804389676,32.704796,5.08289,45.815445,2.5289822,1.7421877,-0.48991394
1764804389727,19.495985,-4.999093,28.744785,6.315125,-2.2565362,-4.1648793
1764804389779,9.768343,-11.219229,12.583924,7.910705,-3.2302554,-6.418972
1764804389830,6.775591,-14.2143755,7.0964136,7.067711,-1.2473868,-7.507534
1764804389881,7.1945763,-15.50485,1.4413095,5.811772,0.95172805,-7.750658
1764804389933,1.5131354,-18.059464,-2.0350714,5.70426,-0.41538838,-7.984009
1764804389985,-9.23683,-18.677168,-8.228871,2.244319,0.8979719,-3.5882225
1764804390036,-14.403518,-16.876728,-14.657303,2.35794,-0.6780604,-1.8790215
1764804390087,-14.8033495,-11.314998,-16.2686,-0.12095132,0.65240407,0.61208695
1764804390138,-5.509058,-8.429984,-9.174581,-2.2369885,0.13927728,1.5479325
1764804390190,-6.739678,-12.210428,-11.2312,-1.4416419,-1.0372492,0.8539896
1764804390246,-10.896012,-17.314867,-8.961497,-1.9730947,-2.7085764,1.486846
1764804390297,-0.31124622,-32.3313,-4.9536033,-3.259577,-3.9022071,9.699318
1764804390348,16.110582,-48.717216,11.314998,-8.156273,1.3316863,14.699862
1764804390399,37.2442,-44.290337,23.585281,-5.2607713,-2.7232373,15.816523
1764804390451,78.35504,-7.81228,21.497538,-5.252219,1.105666,12.903917
1764804390501,44.196964,7.3286514,29.06082,0.3371976,0.14782938,-1.3891076
1764804390553,40.157944,1.6280571,19.70428,2.6108382,0.6585127,-4.3982296
1764804390604,24.138342,-5.547365,15.471332,3.8570032,-0.087964594,-7.0225067
1764804390656,13.771448,-12.449849,7.6853876,4.863709,0.25900686,-8.993158
1764804390707,8.971074,-14.992491,4.232949,4.221079,1.0800097,-9.186192
1764804390758,5.8681884,-16.429012,-0.62967503,3.8423424,2.3322835,-8.489805
1764804390810,-2.1739352,-18.770542,-6.3781533,4.460538,0.5546656,-7.7995276
1764804390862,-14.245501,-17.386692,-9.057265,2.324953,0.12461651,-3.4526103
1764804390914,-14.271836,-14.745889,-9.232041,2.0415115,-0.6426302,-1.237613
1764804390965,-10.805033,-11.042058,-9.622296,1.0360274,-0.2968805,0.7086037
1764804391016,-11.422736,-14.571112,-8.968679,-1.3683381,-0.49113566,1.4391985
1764804391068,-12.617443,-19.931728,-7.2711906,-2.6364944,-0.61575216,2.7281241
1764804391119,-10.994174,-24.978706,-4.3598413,-3.7091737,-0.6365216,4.8209486
1764804391171,-4.201824,-30.782251,-1.2689269,-4.7024407,-0.70371675,7.7494364
1764804391222,19.460072,-40.33272,18.914194,-5.6920424,-3.209486,14.558141
1764804391273,73.27454,-8.880095,34.869152,-10.906388,5.000543,10.578964
1764804391325,38.290466,3.7852328,50.488926,-4.3774605,-3.8594465,1.5491543
1764804391376,35.53235,3.7828386,26.889278,2.3469443,0.35430184,-2.733011
1764804391429,21.753717,-2.0087352,19.27093,3.562566,0.4092797,-4.614476
1764804391480,16.225506,-4.132392,12.91193,4.3860126,0.63407815,-5.5564303
1764804391532,9.126697,-6.691794,8.628703,4.84294,0.3933972,-5.5466566
1764804391583,3.3734303,-8.889671,3.0909145,3.9241984,2.7171285,-5.744577
1764804391634,-0.18674773,-11.295844,-2.3750482,4.656015,1.9963076,-5.489235
1764804391686,-6.591237,-11.173739,-6.227319,4.5485024,1.2388347,-5.189911
1764804391737,-11.918336,-7.953538,-15.605407,2.9455922,1.5980235,-2.6914723
1764804391788,-9.40203,-4.177882,-12.837709,1.1117748,0.2284636,-0.4166101
1764804391839,-5.753267,-3.0382419,-9.68694,0.45814893,0.105068825,0.23457226
1764804391891,-7.026982,-4.187459,-9.964667,0.68416905,-0.58276546,-0.16982053
1764804391943,-8.863335,-9.97185,-11.281479,0.21380283,-0.8002335,0.032986723
1764804391995,-9.528923,-11.370064,-9.701305,-1.2461652,-0.9639453,0.6939429
1764804392046,-7.9272017,-14.5567465,-9.758766,-1.3316863,-1.9156734,2.0207422
1764804392099,-3.7086184,-36.932957,-3.1890767,-6.6559877,-2.179567,9.44642
1764804392150,15.064317,-48.619053,10.19451,-8.240572,-2.819754,16.388292
1764804392202,78.42207,-33.51643,-12.576741,-0.08552113,-5.5686474,21.485352
1764804392253,19.582176,-0.39743748,57.638012,-11.880107,3.6749654,-1.0091494
1764804392304,35.97288,5.2959743,28.529308,1.1264355,2.125811,-0.7733554
1764804392355,23.824701,-1.8387469,18.02355,3.5027013,-0.267559,-3.644422
1764804392407,17.889475,-2.8778305,12.088325,3.5393531,0.6792821,-4.8099527
1764804392458,5.60722,-4.7524905,6.4404025,4.0378194,0.5852089,-6.00114
1764804392510,2.0733786,-7.0700774,3.0095115,3.907094,1.0152581,-5.814215
1764804392561,0.91697925,-7.642292,-1.0941502,3.627318,1.3683381,-5.4318137
1764804392612,-4.1252093,-8.930372,-5.279215,4.0585885,-0.014660766,-5.445253
1764804392664,-13.208811,-6.4404025,-8.070854,2.2088888,-0.17348573,-3.0616567
1764804392716,-12.955026,-4.7046065,-8.607155,1.5161675,-0.40194935,-1.7556267
1764804392768,-13.453019,-4.747702,-7.630321,0.88086766,-0.25411993,-0.88086766
1764804392819,-13.65892,-7.3645644,-5.3486466,0.23579398,-0.65118235,0.2321288
1764804392871,-13.754689,-10.512939,-7.9152308,0.33475417,-0.5815437,0.9786061
1764804392922,-14.300567,-14.30775,-7.0700774,-0.7452556,-1.0531317,2.0879374
1764804392973,-14.999674,-22.572535,-5.7269306,-2.1917844,-0.70616025,4.660902
1764804393025,7.505822,-57.32437,10.314221,-6.3982024,2.0928242,17.498846
1764804393076,61.59323,-56.33796,14.915876,-5.6419516,4.1184535,18.087719
1764804393128,49.521667,-8.983045,59.788006,-9.125105,4.9883256,4.0585885
1764804393179,37.926548,-0.6703765,30.913933,1.3096951,0.7672467,-0.6072
1764804393230,26.393679,-5.2002063,20.535069,3.1923819,-1.1838568,-3.5674531
1764804393283,17.97806,-5.4061074,14.822503,3.6016614,-0.88208944,-5.182581
1764804393335,12.306197,-5.9567738,10.223241,4.125784,-0.7244862,-6.0597835
1764804393387,4.7429137,-7.201759,5.657499,3.4831536,1.0531317,-7.266853
1764804393438,3.2609026,-8.137892,4.5777135,3.1887167,3.1068606,-6.658431
1764804393490,2.9233203,-9.713276,1.0366893,4.43366,2.9297097,-5.480683
1764804393541,-14.669273,-12.933477,-11.638214,5.1251593,-0.6951646,-4.224744
1764804393592,-17.702728,-9.018958,-9.935937,1.7873917,-0.73792523,-0.8197812
1764804393644,-9.94312,-3.3973722,-7.228095,0.58032197,0.44104472,1.1410962
1764804393696,-9.481039,-1.7357962,-11.463438,0.71837753,-0.4642576,-0.344528
1764804393747,-11.832145,-3.7924154,-10.488997,-0.17715092,-0.7086037,-0.119729586
1764804393799,-10.33098,-5.9160724,-8.520964,-1.1459832,-0.5155703,0.625526
1764804393851,-12.0571995,-9.797073,-7.690176,-1.9339994,-0.5009095,0.6780604
1764804393903,-13.136985,-22.591688,-2.992752,-3.563788,-0.9627236,5.154481
1764804393955,-2.6168625,-30.461428,-0.08379706,-4.4532075,-0.7086037,9.673662
1764804394006,10.093954,-42.31512,13.575124,-7.4049087,2.951701,14.023023
1764804394057,46.124294,6.339846,54.271763,-7.516086,-0.1160644,2.6083946
1764804394108,36.53073,8.35337,41.66629,-0.18692477,-0.86009824,0.20525073
1764804394160,33.952175,7.6614456,28.66817,2.261423,-0.28099802,-1.4880677
1764804394211,24.71295,1.1923125,18.411411,4.1001277,-1.8032742,-3.7849212
1764804394266,10.220847,-4.7070007,7.678205,3.6639698,-1.3524556,-6.015801
1764804394318,5.604826,-5.0302176,6.931214,2.7953193,0.7281514,-6.223495
1764804394370,5.269638,-7.867347,2.7150247,3.4293976,1.8020525,-6.603453
1764804394421,-3.3542767,-13.237541,-5.901707,5.1618114,-1.491733,-6.7757173
1764804394472,-8.808268,-11.372458,-6.0118403,2.5595255,0.4361578,-5.8850756
1764804394523,-14.056358,-12.445061,-8.695741,3.2791247,-1.4355333,-4.346917
1764804394575,-12.100295,-6.603208,-6.8689647,0.22724187,0.118507855,-0.36285394
1764804394627,-12.349293,-7.201759,-8.446744,0.21868975,-0.6450737,0.065973446
1764804394678,-12.294226,-7.675811,-6.799533,-0.7965683,-0.27488935,0.73792523
1764804394730,-12.038046,-10.283096,-5.741296,-1.3487904,-0.27855456,1.4807373
1764804394781,-13.567941,-18.432959,-6.447585,-2.0696115,-1.4037683,4.776966
1764804394833,-6.6606693,-21.9261,-3.3494883,-3.5234706,-0.68294734,7.6626935
1764804394884,8.635885,-30.016108,5.4563856,-5.1923547,-0.61819565,10.636386
1764804394940,60.88934,-3.490746,-2.8754363,-0.1966986,-4.3090434,11.243586
1764804394991,44.62074,15.763424,30.478188,-6.0133576,1.6798794,4.1184535
1764804395043,44.838608,17.958906,20.920534,-0.42638394,0.5815437,0.7415904
1764804395095,24.33706,6.385336,12.586318,1.4905112,0.41783184,-3.6163223
1764804395147,17.137695,2.5594015,9.0476885,2.0415115,0.625526,-4.7171016
1764804395198,9.825804,-0.48841715,5.9759274,1.9975294,0.8539896,-5.6712728
1764804395249,5.0014873,-2.9616275,5.3342814,1.5540411,2.3542747,-5.6236253
1764804395301,2.9472623,-6.14831,0.80445176,3.150843,3.3988543,-4.7525315
1764804395352,0.34237084,-9.141062,-3.9217024,5.176472,0.54611355,-5.1471505
1764804395404,-7.21373,-13.639767,-9.536105,5.442809,-0.25534168,-6.3212337
1764804395456,-18.50239,-13.603854,-11.789049,4.0598106,-2.0708332,-5.1385984
1764804395507,-11.930307,-6.7229185,-9.866506,0.0720821,-0.11484267,0.56688297
1764804395559,-10.704475,-5.765238,-8.1642275,-1.001819,0.0036651916,1.0054842
1764804395610,-12.078748,-6.3326635,-5.9519854,-1.5601498,-0.22968534,1.4844025
1764804395661,-13.809755,-14.223952,-5.803545,-1.8875736,-0.61941737,2.9846876
1764804395712,-13.01488,-21.286848,-5.0613422,-2.13925,-1.2596041,5.907067
1764804395763,-1.6280571,-26.700138,2.2290018,-4.2479568,0.36651915,10.382266
1764804395815,19.744982,-26.45114,8.365341,-2.1465805,-1.319469,13.822659
1764804395867,18.818426,5.9400144,24.559721,-3.9095376,-2.3823745,0.15393804
1764804395918,16.397888,5.4420204,21.040245,-2.0525072,0.69027776,1.17897
1764804395970,20.03468,7.1466923,16.14889,-0.50946164,0.062308256,1.1863003
1764804396021,10.582372,5.511452,9.593566,-0.12705997,1.0592403,-0.6450737
1764804396074,9.351752,4.441244,7.2352777,1.282817,-1.9120082,-1.1472049
1764804396125,7.759608,3.1675289,5.9041014,1.6358972,-1.7153096,-1.5222762
1764804396177,5.717354,2.6647465,4.2664676,2.225993,-1.6175711,-1.518611
1764804396228,4.984728,3.8546648,6.339846,2.5864034,-0.66950834,-1.8374827
1764804396279,4.924873,3.0933087,4.663905,3.3279939,-0.17837265,-2.0598376
1764804396331,4.7189717,5.6335564,2.5091233,3.1483996,1.3035865,-1.9547688
1764804396383,-0.61530983,6.4882865,-4.5753193,4.0182714,0.71593404,-1.8228219
1764804396434,-2.0590134,5.5856724,-10.697293,4.0634756,-0.26389378,-1.8497
1764804396486,-0.82599956,6.1890116,-10.101137,1.6224581,0.8405506,-0.37384954
1764804396537,2.1164744,6.993463,-9.545682,1.3988814,0.35308012,-0.09407325
1764804396588,3.6152446,7.6111674,-8.298303,0.2565634,0.36774087,0.25900686
1764804396642,3.58412,8.137892,-6.895301,0.11728613,0.010995574,-0.062308256
1764804396693,2.5139117,7.8649526,-6.3709707,-0.14905111,0.40561453,-0.030543262
1764804396744,2.5905263,7.398083,-6.5218053,0.19914207,-0.03176499,0.2125811
1764804396796,2.956839,7.1849995,-6.227319,0,0.040317107,0.23090707
1764804396847,3.4404678,7.4723034,-6.2129536,-0.058643065,0.037873644,0.2565634
1764804396900,2.645593,6.9000893,-5.554548,0.49968776,-0.29443705,0.42271876
1764804396952,5.482722,8.432379,-6.919243,0.18692477,0.19547687,0.38606682
1764804397005,4.3167458,7.809886,-8.056489,-0.32986724,0.7293731,-0.25534168
1764804397061,1.9416976,7.0126166,-6.5625067,-0.41905355,-0.37018433,-0.5119051
1764804397117,1.769315,6.813898,-5.391742,-0.39461896,-0.52778757,-0.21991149
1764804397169,2.504335,6.861782,-5.2361193,-0.31398472,-0.17470746,0.073303826
1764804397223,2.9616275,7.2185183,-5.3223104,0.007330383,-0.09896017,0.059864793
1764804397276,2.6024973,7.455544,-5.8203044,0.065973446,-0.013439035,0.015882496
1764804397332,2.3008277,7.36217,-5.995081,-0.02321288,-0.04642576,0.004886922
1764804397384,2.2840683,7.735666,-6.1123967,-0.5644395,0.21624629,0.10262536
1764804397437,3.2273839,8.173804,-5.377377,-0.47647488,-0.012217305,0.07452556
1764804397490,2.8443117,7.9870567,-5.1786585,-0.3323107,0.062308256,-0.042760566
1764804397543,2.9041667,7.965509,-5.801151,-0.44959682,0.35308012,0.04642576
1764804397596,2.9903579,7.771579,-6.327875,-1.0861185,0.9431759,0.10140363
1764804397650,2.9903579,7.776367,-5.9759274,-2.475226,2.1881194,0.29443705
1764804397702,3.8402996,7.941567,-0.50517654,-4.416556,4.083023,0.47647488
1764804397754,3.4859576,7.740454,3.1627405,-4.664567,5.2387805,0.57910025
1764804397808,3.6822822,7.017405,5.4324436,-4.3237042,4.9846606,0.059864793
1764804397860,1.2904748,5.827487,8.128315,-1.6102408,2.933375,-0.15271631
1764804397916,-0.48841715,5.6910176,7.7907324,-0.88331115,2.0146337,-0.33841935
1764804397969,-0.14604631,6.0238113,7.575254,-0.38240165,1.1667526,-0.017104227
1764804398023,-0.08140286,6.3206925,6.871359,0.36774087,0.09040806,-0.034208454
1764804398080,0.37588966,6.7085533,6.7348895,0.5326745,-0.47769663,-0.09896017
1764804398133,0.45489833,6.5146227,6.909666,0.5045747,-0.42271876,-0.15882497
1764804398186,0.37828386,7.1993647,6.5840545,0.5693264,-0.5681047,-0.36774087
1764804398238,0.23223756,7.065289,6.3230867,0.52534413,-0.54611355,-0.40317106
1764804398291,0.021547815,7.678205,6.0285997,0.312763,-0.2968805,-0.3640757
1764804398345,0.3854665,7.702147,5.887342,0.4654793,-0.30298916,-0.18325958
1764804398400,0.61052144,7.8529816,5.9783216,0.28710666,-0.22602014,-0.15271631
1764804398452,0.56982,7.917625,5.8203044,0.33108896,-0.15760323,-0.1001819
1764804398504,0.40462008,7.7069354,5.686229,0.5644395,-0.53878313,-0.12217305
1764804398556,0.30406362,7.867347,5.2983685,0.38606682,-0.33475417,-0.02443461
1764804398609,0.23702596,7.893683,5.2480903,0.32253686,-0.23090707,0.034208454
1764804398663,0.6919243,8.166622,5.1571107,-0.040317107,-0.061086524,0.0012217305
1764804398719,0.49559975,8.123527,5.011064,0.032986723,-0.07819075,-0.010995574
1764804398771,0.62728083,8.039729,5.044583,-0.008552114,-0.18325958,-0.064751714
1764804398824,0.8858546,8.034941,5.2840033,-0.14294247,-0.07696902,-0.057421334
1764804398883,0.5626374,8.075643,5.035006,-0.05497787,0.021991149,-0.07696902
1764804398939,0.60812724,8.013393,5.7149596,-0.2968805,0.10873401,0.0036651916
1764804398991,0.5722142,7.941567,5.7748146,-0.089186326,0.037873644,0.019547688
1764804399044,0.6344634,7.943961,5.533,0.002443461,0.06352998,0.05497787
1764804399101,0.4189853,7.81228,5.221754,0.080634214,0.19058995,0.030543262
1764804399153,1.0845734,8.00621,5.8705826,0.064751714,0.22602014,0.032986723
1764804399204,0.89303726,7.97748,6.030994,-0.44959682,-0.18325958,-0.30176744
1764804399255,0.7326257,7.620744,5.947197,-0.47769663,-0.061086524,-0.45570546
