t,ax,ay,az,gx,gy,gz
1764921339337,-2.5594015,-2.1308396,9.931149,-0.062308256,0.22357668,-0.14538592
1764921339390,-2.9831753,-2.243367,10.079589,-0.02321288,0.1563815,-0.14294247
1764921339443,-3.5194764,-1.8171991,9.452309,0.032986723,0.38973203,-0.07086037
1764921339496,-3.2106245,-1.4628572,10.601525,0.05375614,0.10140363,-0.02687807
1764921339549,-2.7102363,-1.3311762,11.446678,0.11362094,0.21013765,0.013439035
1764921339603,-2.1260512,-1.5298948,11.824963,0.312763,0.05375614,0.0720821
1764921339656,-2.408567,-2.0159178,10.852917,0.42638394,0.1881465,0.09285152
1764921339709,-1.5658079,-1.5251064,10.3932295,0.48258355,-0.030543262,0.040317107
1764921339765,-2.207454,-1.4796166,9.581595,0.58276546,0.2602286,-0.17837265
1764921339818,-7.2328835,-2.3295584,13.730747,0.5815437,0.8576548,-0.21135938
1764921339871,-10.220847,-2.1547816,12.758701,0.66706485,-0.24801129,-0.18203785
1764921339923,-0.011971008,-2.492364,10.359711,0.8210029,0.8002335,-0.029321533
1764921339976,-8.614338,0.7038953,6.873753,0.9089675,0.77213365,-0.19058995
1764921340029,-7.1131735,0.02873042,10.941502,0.8038987,0.19425514,-0.014660766
1764921340085,-6.8282633,1.0749966,7.007828,0.90285885,0.80878556,0.12950343
1764921340139,-6.9479733,2.5689783,5.9783216,0.79168135,0.52656585,0.25289822
1764921340192,-3.6224272,1.2952632,6.0046577,0.65240407,-0.13805555,0.24801129
1764921340244,-5.446809,0.81163436,7.338228,0.54611355,-0.49480084,0.31398472
1764921340299,-4.1635165,0.031124622,5.45878,0.47769663,-0.30665436,0.312763
1764921340357,-1.7286136,0.51954174,5.3606176,0.36651915,-1.9230038,0.13072516
1764921340409,0.5482722,3.217807,6.157887,0.25778514,-0.4092797,0.09285152
1764921340461,0.031124622,3.8546648,8.611943,0.23457226,-0.13439035,0.040317107
1764921340523,-6.3446345,1.7597382,12.26789,0.17470746,0.71837753,-0.06963864
1764921340576,-4.146757,1.2545617,13.326127,0.4728097,-1.1129965,-0.20769419
1764921340628,-0.6536171,4.1299977,7.589619,0.55955255,-1.5161675,-0.33964106
1764921340681,-8.781932,3.9815574,7.8529816,0.10140363,0.37140608,-0.16493362
1764921340736,-6.1650696,2.3199813,8.35337,0.10995574,-0.33108896,0.02076942
1764921340789,-3.4141316,3.7373488,7.2424603,0.105068825,-0.6585127,0.118507855
1764921340841,-3.2273839,3.3063924,6.385336,0.034208454,-1.0885619,0.047647487
1764921340894,1.946486,4.1012673,5.3127337,-0.09773844,-0.9053023,0.07574729
1764921340947,-2.980781,3.454833,11.056423,-0.09773844,-1.9388863,-0.034208454
1764921341001,2.5761611,2.2170308,13.192051,0.22113322,-0.14294247,0.32375857
1764921341055,2.542642,2.791639,9.471462,0.35430184,-0.3481932,0.14294247
1764921341107,4.4196963,3.6152446,6.10282,0.35063666,-0.9272934,-0.065973446
1764921341160,-4.012682,4.378995,16.354792,0.28588495,0.54367006,-0.12339478
1764921341213,-6.3446345,4.462792,26.489449,0.5839872,0.28710666,0.012217305
1764921341271,-3.2513258,4.0342298,32.273838,1.2925909,-0.11484267,0.11484267
1764921341323,-1.9201498,2.1428106,24.847025,2.769663,0.25411993,0.28955013
1764921341376,-0.62728083,-0.50757074,19.177555,3.1887167,0.21380283,0.35308012
1764921341453,3.4117374,-7.1514807,13.831304,3.875329,0.21502456,0.21868975
1764921341505,2.2218192,-8.693346,10.225636,4.1502185,0.24312437,0.10995574
1764921341560,1.6065093,-10.077195,1.1109096,4.3346996,0.45081854,0.036651913
1764921341612,1.4269443,-10.208876,-1.4628572,4.2736135,0.5326745,0.030543262
1764921341665,0.7469909,-10.759542,-3.4380736,4.192979,0.61086524,0.09040806
1764921341719,0.8738836,-9.775525,-9.203311,3.8386772,0.34697145,0.10140363
1764921341772,1.4772224,-9.255983,-10.388441,3.5430183,0.50579643,0.095294975
1764921341825,1.2761095,-8.954314,-13.144167,3.2693508,0.39095375,0.09896017
1764921341876,0.7038953,-6.727707,-21.952435,2.4727826,0.5925393,0.10873401
1764921341929,3.1124623,-5.1762643,-30.344112,1.9156734,-0.032986723,0.096516706
1764921341982,5.363012,-2.5330653,-37.857117,1.0360274,0.08552113,0.013439035
1764921342040,2.231396,-5.3079453,-45.741222,-1.3793337,-0.70616025,-0.22113322
1764921342092,1.1587936,-12.148179,-44.204147,-2.7892108,-0.7012733,-0.20891592
1764921342144,1.6519991,-19.974825,-41.93923,-4.1563272,-1.3707817,-0.13072516
1764921342197,1.8722657,-45.245625,-26.101587,-6.5448103,-1.9437732,0.4886922
1764921342249,4.402937,-55.274933,-16.18241,-7.293731,-2.324953,0.9822713
1764921342302,5.583278,-62.143898,-7.7787614,-7.727445,-2.1649065,1.4831808
1764921342360,13.769054,-59.613228,19.184738,-7.46233,-1.2046263,1.8509218
1764921342412,12.703634,-46.330196,39.62404,-6.7573915,-0.9456194,1.7287487
1764921342465,14.839262,-29.37925,52.80412,-5.445253,-0.7281514,1.4856243
1764921342517,19.481619,0,69.029625,-2.2418754,-0.37751472,0.42149702
1764921342573,15.938201,6.1650696,70.30573,-0.39706242,0.38728857,0.07696902
1764921342626,14.609419,-0.7206547,65.7759,1.2583824,-0.06352998,-0.30665436
1764921342679,17.171215,-24.655489,52.42823,4.7708573,1.359786,-0.7684685
1764921342732,10.34774,-39.24815,39.267303,6.1001005,1.491733,-0.9309586
1764921342795,5.985504,-53.907845,13.850457,7.562512,1.0922271,-0.5448918
1764921342848,5.7843914,-58.272476,1.8171991,7.7628756,1.5112807,-0.36651915
1764921342900,3.1172507,-56.424152,-6.361394,7.678576,1.2363913,-0.13316862
1764921342962,2.4181437,-44.781147,-16.053122,6.739065,1.4636332,0.6743952
1764921343015,6.691794,-38.81001,-22.412123,6.1563,0.57787853,0.8014552
1764921343067,8.6095495,-30.6386,-36.420597,5.3682837,1.2767084,0.8210029
1764921343122,14.788984,-13.771448,-56.586956,2.6853635,0.73426,0.344528
1764921343175,11.3964,-13.548787,-60.58767,0.79534656,-0.19914207,-0.18692477
1764921343230,11.959038,-14.18325,-65.651405,-1.1472049,-0.5852089,-0.49235737
1764921343283,8.3629465,-42.209778,-53.721096,-5.5552087,-2.2699752,-0.7440339
1764921343339,4.4220905,-61.028202,-40.45004,-7.33527,-1.831374,-0.41538838
1764921343397,9.227253,-78.44363,-5.631162,-8.976054,-3.12763,0.91507614
1764921343449,9.969456,-78.44363,2.906561,-8.87465,-2.0231857,1.5161675
1764921343503,11.274296,-78.44363,12.174516,-8.5557785,-2.7574458,1.8851302
1764921343559,20.59253,-52.79933,49.947834,-7.1459017,-1.8936822,1.7922786
1764921343612,21.456835,-29.510931,63.61873,-5.6089644,-0.4642576,1.5393804
1764921343664,21.693861,-12.023681,72.683174,-3.8154643,-0.75747293,0.93584555
1764921343717,17.82962,2.6623523,72.103775,0.14294247,0.22968534,0.03176499
1764921343773,17.374722,-1.4556746,70.46854,1.8875736,-0.14660765,-0.43493605
1764921343826,18.80406,-13.215993,65.08637,3.6138787,0.784351,-0.66339964
1764921343879,13.342886,-50.690037,42.379765,6.8233647,1.7458528,-1.1044444
1764921343931,9.78989,-63.127914,25.591621,7.9534655,1.7250835,-1.0067059
1764921343984,8.279149,-71.09821,11.935096,8.638856,1.3304645,-0.87598073
1764921344038,2.657564,-70.456566,-8.623915,8.460484,1.4941764,-0.643852
1764921344093,1.5705963,-59.79758,-16.153679,7.8545055,1.5809193,-0.010995574
1764921344145,3.181894,-53.349995,-21.38501,7.2302012,1.1545353,0.27366763
1764921344197,7.079654,-34.830845,-36.45172,5.367062,0.009773844,0.46303585
1764921344250,7.03177,-25.902868,-52.236694,4.08791,0.5925393,0.33475417
1764921344306,3.6990416,-18.102558,-61.562107,2.171015,0.064751714,0.12950343
1764921344361,4.7429137,-17.314867,-68.249115,-2.3945918,-0.70616025,-0.20891592
1764921344413,4.9703627,-32.82211,-57.226208,-4.7403145,-1.4074335,-0.22113322
1764921344465,2.6862943,-52.624554,-46.25837,-6.5814624,-1.3573426,-0.014660766
1764921344517,5.0038815,-78.44363,-20.910957,-8.878316,-2.0073032,0.96761054
1764921344571,6.6774287,-78.44363,-8.930372,-9.3132515,-2.1135938,1.4782939
1764921344625,10.065224,-78.44363,-0.01436521,-9.399995,-1.174083,1.9511036
1764921344678,18.938135,-75.060616,39.518692,-8.621752,-0.6817256,2.298075
1764921344730,21.41374,-48.578354,63.173405,-7.216762,-1.0213667,1.8362609
1764921344783,19.804836,-24.121582,77.30159,-5.2888713,-1.0140363,1.3793337
1764921344836,19.632454,2.8562827,76.14519,-1.0421361,-0.172264,0.50579643
1764921344889,19.850327,5.3007627,70.157295,0.8552113,0.3494149,0.06719518
1764921344944,19.127277,-4.546589,65.749565,2.5289822,0.81000733,-0.40561453
1764921344996,14.535198,-33.97372,47.79545,5.6639423,1.7165314,-0.7464773
1764921345048,9.095572,-48.96861,35.223495,6.917438,1.9095647,-0.65484756
1764921345100,9.167398,-59.11284,18.574217,7.7494364,2.0415115,-0.3885103
1764921345156,3.6774938,-61.121574,-5.41329,8.07686,2.0781636,-0.03176499
1764921345208,6.3566055,-56.402603,-17.518373,7.7714276,0.32498032,0.4129449
1764921345263,2.9017725,-44.026974,-22.172703,6.92599,0.6133087,0.38362336
1764921345315,2.336741,-27.81823,-36.961685,4.8905873,1.2547172,0.24801129
1764921345367,4.201824,-17.082628,-50.352455,3.2632422,-0.47036624,0.15393804
1764921345419,-0.031124622,-10.089166,-60.070522,1.5406022,-0.25045475,0.021991149
1764921345475,-0.4405331,-16.73547,-64.13109,-2.5192082,-1.4367551,0.17837265
1764921345529,1.1994951,-28.8214,-56.299652,-4.5045204,-1.8997909,0.4092797
1764921345581,0.11252748,-46.385265,-44.88889,-6.1318655,-2.3518312,0.79412484
1764921345634,3.4380736,-75.09174,-16.043545,-8.131838,-2.207667,1.7947221
1764921345687,8.767567,-78.44363,-4.2305546,-8.382293,-2.6401596,2.453235
1764921345741,10.110714,-78.44363,7.065289,-8.367632,-0.48258355,2.7476718
1764921345795,16.634912,-54.650047,47.58476,-7.3878045,-0.14172074,2.5008824
1764921345847,23.712173,-33.89232,63.89885,-6.0084705,-0.97127575,1.9914207
1764921345899,27.068844,-13.261483,73.87309,-4.1587706,-0.24190263,1.486846
1764921345953,24.128765,3.4715924,67.62183,-0.11484267,0.31398472,-0.13805555
1764921346011,18.229452,1.0869676,59.84786,1.5296066,1.0445796,-0.61453044
1764921346064,13.129802,-5.0661306,56.515133,2.8820622,1.4514158,-0.86254174
1764921346116,12.636597,-35.654453,43.308716,5.644395,2.0011945,-1.0238101
1764921346169,7.40766,-46.06444,25.675419,6.768387,2.652377,-0.6939429
1764921346221,5.638345,-50.261475,11.077971,7.3218307,1.9010127,-0.35430184
1764921346274,4.596867,-50.608635,-5.758055,7.403687,1.3353515,0.042760566
1764921346328,5.475539,-45.736435,-14.283808,7.0249505,0.66828656,0.12705997
1764921346381,5.374983,-39.674316,-16.010027,6.4177504,0.39706242,0.004886922
1764921346434,2.861071,-27.945122,-28.294676,5.186246,0.60231316,0.14905111
1764921346486,3.110068,-22.586899,-39.57376,4.3078218,1.0934488,0.1881465
1764921346539,1.5035586,-11.113884,-53.201557,2.9675834,0.7012733,0.2761111
1764921346596,-0.32800564,-8.173804,-63.405643,-0.7635816,-0.408058,0.032986723
1764921346648,-2.542642,-17.125725,-59.412117,-2.8136454,-1.3585643,0.1282817
1764921346701,-2.0853498,-30.38242,-49.509697,-4.5313983,-1.7519615,0.50335294
1764921346753,0.5243302,-60.4512,-24.763227,-7.044498,-2.5363126,1.5564847
1764921346806,1.1180922,-67.79421,-13.730747,-7.594277,-1.3610078,2.1111503
1764921346860,7.1275387,-72.091805,-4.572925,-7.8312926,-2.0964894,2.4727826
1764921346914,13.227964,-61.662666,20.803219,-7.465995,-0.88208944,2.3408356
1764921346967,21.576546,-48.42273,48.358086,-6.995629,0.28710666,2.1294763
1764921347019,20.458454,-26.731262,65.40959,-5.39394,-1.0128145,1.359786
1764921347072,16.17762,3.1651347,70.279396,-1.6395624,0.6927212,0.23701571
1764921347124,12.540829,7.321469,64.82301,0.13561209,0.6939429,-0.1282817
1764921347181,9.610326,3.8522706,58.274868,1.6554449,0.8686504,-0.35185838
1764921347233,13.43626,-15.028404,46.852135,4.0463715,0.83077675,-0.5839872
1764921347286,10.287885,-27.983429,36.18836,5.254663,1.9523253,-0.6291912
1764921347339,5.781997,-35.467705,26.906038,6.1404176,2.1038198,-0.4801401
1764921347394,3.7373488,-45.851357,4.9775453,7.0738196,2.085494,-0.02321288
1764921347447,1.6208745,-46.46906,-2.3056161,7.101919,1.3720033,0.2968805
1764921347500,4.144363,-45.207317,-8.597578,6.9015555,0.87964594,0.4642576
1764921347553,3.6056678,-38.1947,-20.84871,6.173404,0.33475417,0.61941737
1764921347606,4.9296613,-31.17969,-30.095116,5.4953437,0.5644395,0.5338962
1764921347660,4.3885717,-21.270088,-44.991837,4.4703116,0.43127087,0.5729916
1764921347714,3.7852328,-8.829816,-58.128822,1.2486086,0.49113566,0.14294247
1764921347766,2.4277205,-10.038888,-62.26361,-0.73548174,-0.7806858,-0.04153884
1764921347819,-0.7110779,-19.938911,-59.524643,-2.7892108,-0.81489426,-0.008552114
1764921347871,1.5945383,-46.60553,-43.208157,-6.2735863,-1.3414601,0.33475417
1764921347923,0.51954174,-61.71773,-32.62818,-7.5185294,-1.7116444,0.6768387
1764921347976,3.040636,-76.176315,-19.74977,-8.513018,-2.5717428,1.4440855
1764921348034,6.50744,-78.44363,2.408567,-8.837998,-0.35918877,2.5314255
1764921348087,18.152838,-78.44363,17.156849,-8.658404,-3.602883,2.5912905
1764921348139,22.287624,-65.280304,49.60307,-7.8752747,-0.43860126,3.0042353
1764921348191,29.925127,-17.266983,68.01448,-4.0097194,-0.816116,1.5711454
1764921348244,22.201433,-7.1107793,60.015453,-2.2186625,0.18692477,0.91629785
1764921348296,19.318813,1.7549498,56.61569,-0.7684685,-0.04520403,0.4202753
1764921348355,17.396269,-4.972757,51.006073,1.5735888,0.36163223,-0.24556783
1764921348407,22.0913,-11.042058,49.188873,2.846632,0.47891834,-0.6133087
1764921348460,20.812796,-20.503942,41.589676,4.0683627,1.0775663,-1.0384709
1764921348517,14.681245,-40.562565,25.56768,6.087883,1.8301523,-1.6493362
1764921348568,8.348581,-47.189716,17.537527,6.7292914,1.8790215,-1.609019
1764921348620,5.2480903,-51.60462,7.6470804,7.20821,1.9914207,-1.3096951
1764921348672,3.1675289,-51.4083,-5.415684,7.285179,1.2681563,-0.68294734
1764921348724,1.8938135,-48.147396,-10.58716,7.0432763,1.8606955,-0.31031954
1764921348777,1.2186487,-43.85459,-18.06425,6.7231827,1.5039502,0.09896017
1764921348833,2.681506,-27.758375,-36.545094,5.3084188,0.70371675,0.2846632
1764921348886,4.9559975,-20.448877,-44.86734,4.0585885,0.10140363,0.28588495
1764921348938,3.5553896,-12.339716,-57.159172,2.6108382,0.14660765,0.12950343
1764921348990,0.7206547,-10.666168,-57.867855,-1.1997393,-0.9260717,-0.058643065
1764921349043,0.49559975,-17.867928,-51.52322,-2.992018,-1.1301007,0.02443461
1764921349098,-0.14604631,-28.62268,-41.446026,-4.5069637,-0.94806284,0.18936823
1764921349154,-1.0702082,-46.84495,-22.570139,-6.6828656,-0.49846604,0.5180137
1764921349207,1.2090719,-53.479282,-14.994885,-7.119024,-1.59558,0.6426302
1764921349259,2.6240451,-59.378597,-5.961562,-7.456221,-2.470339,1.1313224
1764921349311,15.95496,-57.1879,14.5328045,-7.2729616,-2.8087585,2.194228
1764921349364,21.617247,-45.98543,29.372066,-6.6706486,-1.0555751,2.2785273
1764921349419,20.932505,-31.998507,37.5339,-5.681047,-0.4361578,1.9181169
1764921349471,22.325932,-7.479486,53.814472,-3.4428365,1.2473868,0.88697636
1764921349524,17.635689,1.6328455,59.886166,-1.9242256,0.28710666,0.039095376
1764921349576,13.280637,4.6902413,62.021793,-0.2968805,1.1887437,-0.42149702
1764921349629,5.2720323,-5.8705826,51.43224,2.8185322,1.4880677,-0.62796944
1764921349683,4.146757,-13.797785,42.683826,4.075693,1.2681563,-0.5522222
1764921349736,3.3327289,-23.075315,32.891544,5.0433035,1.781283,-0.30176744
1764921349789,5.327099,-33.02562,12.7730665,6.2222733,0.6206391,-0.062308256
1764921349842,3.2872388,-34.90746,5.08289,6.3982024,0.95905846,0.014660766
1764921349898,3.2800562,-35.98485,-1.0654198,6.4214153,0.8735373,0.087964594
1764921349953,6.5265937,-30.68409,-12.157756,5.6834903,1.2986995,0.35185838
1764921350005,1.2880806,-27.370514,-12.030864,5.258328,-0.11484267,0.1441642
1764921350057,4.3358994,-24.897303,-24.126371,4.9138002,1.2034045,0.3005457
1764921350110,4.1132383,-14.207192,-37.83078,3.2705724,-0.7440339,-0.30543262
1764921350163,3.466804,-9.32781,-49.234364,2.1539109,0.68294734,-0.3652974
1764921350216,-1.5825673,-2.932897,-55.820812,0.5119051,-0.33353242,-0.44837508
1764921350273,-5.3079453,-16.417042,-52.260635,-3.0848694,-0.93218035,-0.20280726
1764921350325,-6.6079965,-28.158207,-45.50659,-4.6718974,-1.9364429,0.17715092
1764921350379,-4.3478703,-42.260056,-35.515587,-5.9168406,-2.669481,0.8185594
1764921350432,0.4381389,-63.36973,-14.568717,-7.3401566,-2.179567,2.261423
1764921350488,5.5377884,-71.11976,-3.0334535,-7.626042,-1.8289305,2.8637362
1764921350541,14.31972,-69.62338,9.11712,-7.5331903,-1.0384709,3.1569517
1764921350594,20.254946,-39.10689,48.15458,-5.975484,-1.0323622,2.3726006
1764921350648,24.179043,-20.240582,58.169525,-4.604702,-0.43860126,1.8704693
1764921350702,20.748152,-4.915296,62.00743,-3.095865,-0.25778514,1.2363913
1764921350755,17.906235,4.6399627,58.531048,-0.1160644,0.09407325,0.2284636
1764921350807,16.766594,3.016694,53.730675,1.2144,0.61819565,-0.10751228
1764921350859,15.284584,-3.0190883,44.77636,2.3848178,0.2284636,-0.50823987
1764921350911,15.248671,-15.45936,25.646688,4.0549235,0.4886922,-1.1142182
1764921350963,11.348516,-21.674707,25.330654,4.451986,1.8851302,-1.1850786
1764921351017,8.750807,-27.499802,18.907011,5.158146,1.53205,-1.1606439
1764921351072,3.7469256,-34.000057,4.8243165,5.9424973,2.0598376,-0.8552113
1764921351125,2.1140802,-34.055126,-1.5969325,6.010914,1.8753563,-0.47158796
1764921351177,2.0470424,-33.67684,-4.6782703,5.911954,0.8222246,-0.35185838
1764921351230,1.6136919,-29.484594,-14.403518,5.5552087,-0.05497787,-0.37995818
1764921351284,1.340753,-26.58761,-21.497538,5.0933943,0.8344419,-0.30176744
1764921351336,2.0135236,-20.396204,-33.57868,4.528955,-0.44348818,-0.45937067
1764921351390,-6.2871737,-5.5377884,-57.503937,2.0696115,0.059864793,-0.41905355
1764921351442,-4.7500963,-2.183512,-60.511055,0.21135938,-0.79412484,-0.23945917
1764921351495,-7.079654,-7.2831616,-60.927647,-1.7421877,-0.32498032,-0.02565634
1764921351548,-7.4363904,-37.581783,-48.487373,-5.29498,-2.0378466,1.0567969
1764921351604,-5.4324436,-53.450554,-39.609673,-6.532593,-1.7971655,1.7556267
1764921351658,0.20590134,-68.26588,-27.471071,-7.5234165,-2.8026497,2.4019222
1764921351711,12.030864,-78.44363,5.245696,-8.152608,-0.19058995,3.450167
1764921351763,17.5902,-75.28806,18.088194,-7.585725,-2.1160371,3.0921998
1764921351816,21.150377,-51.930233,43.67742,-6.660875,-0.56688297,2.9174924
1764921351870,26.197355,-12.375628,59.136784,-3.6603045,-0.18448131,1.6505579
1764921351923,21.080946,-2.9759927,57.997143,-2.189341,0.3371976,0.9944886
1764921351976,24.265234,2.2409728,61.24368,-0.77946407,-0.52290064,0.4007276
1764921352028,21.883003,-4.4556093,55.44732,1.9889772,0.10995574,-0.42760566
1764921352080,23.017855,-9.555259,47.730804,3.3353243,0.75991637,-0.8210029
1764921352133,21.564575,-21.167137,40.979156,4.3994517,1.1007792,-1.3011429
1764921352193,11.808203,-41.606438,22.797588,6.174626,1.672549,-1.6358972
1764921352248,6.220136,-46.933537,12.464214,6.7195177,1.9083431,-1.4795157
1764921352309,2.4420857,-47.577576,-4.474763,6.945538,1.1142182,-1.0580186
1764921352361,0.39025488,-44.649467,-8.7053175,6.7231827,1.1081096,-0.77457714
1764921352415,2.0566192,-40.0933,-14.302961,6.392094,1.128879,-0.53023106
1764921352469,1.4628572,-30.99773,-26.254816,5.467244,0.19058995,-0.28588495
1764921352523,-0.8619126,-24.423252,-36.750996,4.6572366,0.8906415,-0.24312437
1764921352576,-0.8834604,-14.970943,-49.14099,3.4306192,0.3359759,-0.04520403
1764921352628,-4.2042184,-6.8905125,-65.17496,0.039095376,0.7538077,0.008552114
1764921352681,-1.6208745,-10.398018,-63.925186,-2.112372,-1.4404203,0.0720821
1764921352735,-3.9001546,-25.857378,-55.744198,-4.138001,-1.346347,0.40561453
1764921352790,-2.4971523,-59.735332,-37.14125,-7.1287975,-1.9853121,1.319469
1764921352843,0.2657564,-74.38545,-25.347414,-8.018217,-2.4862216,1.9706513
1764921352897,4.8745947,-78.44363,-13.457808,-8.531344,-2.8735101,2.7317894
1764921352950,19.376274,-78.44363,11.767501,-7.920479,-1.2913691,4.2687263
1764921353004,25.127148,-73.7055,24.698586,-7.3059483,-2.171015,4.0989056
1764921353059,28.828583,-52.63413,50.991707,-6.400646,-0.6206391,3.7739255
1764921353112,38.16836,-9.121908,67.26031,-2.6108382,0.12461651,1.6285667
1764921353164,38.204277,-1.6232687,61.657875,-0.8772025,0.34208453,0.6768387
1764921353216,33.626564,-1.4221559,56.649208,0.59864795,0.4801401,-0.25411993
1764921353270,23.374592,-12.157756,42.035,3.00057,0.97127575,-1.3671165
1764921353324,21.35149,-21.57894,36.01358,3.940081,1.1569787,-1.7751744
1764921353379,18.033127,-29.929916,29.199684,4.823392,1.9303342,-1.9352211
1764921353433,10.201694,-42.173862,14.956578,6.137974,2.035403,-1.8887954
1764921353485,6.1890116,-44.426807,8.106767,6.5118237,2.189341,-1.6212363
1764921353546,5.094861,-45.5449,1.7741034,6.7158527,2.0732768,-1.2522738
1764921353598,2.3127987,-43.536163,-7.908048,6.6339965,1.6737708,-0.61819565
1764921353650,2.7006595,-42.018238,-12.634202,6.38232,1.8020525,-0.2968805
1764921353704,4.5801077,-31.814152,-31.1342,5.5051174,0.453262,0.02321288
1764921353758,2.908955,-22.596476,-44.56567,4.505742,1.3768903,0.10262536
1764921353810,3.3686419,-12.480973,-55.51675,3.0714304,0.22479841,0.103847094
1764921353865,3.3901896,-6.179435,-60.89652,1.2681563,-0.59131753,-0.05131268
1764921353917,-2.3199813,-15.820885,-61.432823,-2.7537806,-1.4404203,-0.047647487
1764921353969,0.06943185,-30.528465,-52.914253,-4.656015,-2.1270328,0.30298916
1764921354023,-2.4229321,-47.04846,-44.52018,-6.228382,-2.0549507,0.7464773
1764921354075,1.5131354,-78.44123,-20.147207,-8.350528,-3.3194418,2.1282544
1764921354128,9.935937,-78.44363,-5.4922986,-8.532566,-2.1539109,3.0775392
1764921354181,14.207192,-78.44363,4.8123455,-8.288219,-2.951701,3.2779028
1764921354233,23.410503,-54.027557,37.00957,-6.6889744,-2.3139575,3.018896
1764921354286,34.54354,-34.52918,53.079453,-5.6101866,-1.3451253,2.7940977
1764921354339,34.347218,-15.5359745,61.63154,-3.962072,-0.6230826,1.9071213
1764921354393,27.217285,2.9257145,63.082428,-0.20891592,0.28588495,0.20525073
1764921354448,24.619576,0.557849,57.520695,1.2412782,0.7318166,-0.29077184
1764921354501,23.039402,-6.2943563,54.14966,2.6022859,0.3494149,-0.7672467
1764921354554,23.752874,-29.070396,36.973656,4.97,1.1972959,-1.6383406
1764921354608,15.8304615,-41.819523,26.489449,5.863085,1.4269812,-2.0305161
1764921354666,6.229713,-52.670044,6.301539,6.952868,2.1282544,-1.8240436
1764921354718,3.3734303,-53.09382,-1.3934253,7.1068063,2.090381,-1.3976597
1764921354772,2.7485435,-50.268658,-8.408437,7.027394,1.6920967,-1.0482447
1764921354829,1.6400281,-40.04063,-19.49359,6.3493333,1.8497,-0.29443705
1764921354881,1.0199299,-35.017593,-27.511772,5.816659,0.84665924,-0.11362094
1764921354935,2.1284454,-25.914839,-38.774097,5.042082,0.36774087,-0.112399206
1764921354987,1.0630256,-9.114726,-63.43198,1.9938642,-0.5143485,-0.029321533
1764921355045,-0.320823,-6.9000893,-64.83019,-0.11362094,-0.52534413,-0.036651913
1764921355097,-0.56982,-10.9822035,-60.865395,-2.194228,-0.79168135,0.04520403
1764921355150,-1.2186487,-37.064636,-43.804314,-5.6627207,-1.7018706,0.65118235
1764921355203,-2.5210943,-52.636524,-33.298557,-6.8526864,-1.5882497,1.0604621
1764921355255,0.94810385,-65.639435,-21.480778,-7.579616,-2.1551325,1.6261233
1764921355308,13.788208,-75.41735,-3.145981,-7.8410664,-3.7727036,2.6584857
1764921355365,12.378023,-75.67832,8.236053,-7.6822414,-0.57910025,3.0531044
1764921355417,20.082563,-66.73598,18.332403,-7.3047266,-2.9321532,2.8637362
1764921355470,30.260315,-29.645006,57.367466,-5.303532,-1.1447614,2.3054054
1764921355528,29.645006,-15.789761,67.3058,-3.5124753,-0.6951646,1.6200147
1764921355581,30.969,-2.0087352,66.3122,-1.2657127,0.53023106,0.8417723
1764921355634,27.135881,-3.964798,58.669914,1.8154916,0.752586,-0.49235737
1764921355687,22.474371,-12.751518,50.87918,3.218038,1.3170254,-0.9456194
1764921355739,19.84075,-22.139183,38.893806,4.4312167,2.043955,-1.1484267
1764921355796,8.298303,-37.94331,16.972496,5.9730406,1.8936822,-1.0519099
1764921355849,5.1140146,-40.141186,9.828198,6.373768,1.3573426,-0.9089675
1764921355903,3.1747115,-40.524258,1.9560628,6.658431,0.34208453,-0.8686504
1764921355955,3.4261026,-32.953793,-9.871294,5.984036,2.0744984,-0.49602258
1764921356008,0.62009823,-30.001741,-11.432313,5.572313,1.7165314,-0.21746802
1764921356065,2.15957,-23.4536,-25.670631,4.7073274,0.784351,-0.29810223
1764921356117,-3.4883518,-17.937359,-34.557907,4.1135664,0.34697145,-0.30176744
1764921356169,-1.091756,-7.275979,-47.36449,3.050661,0.0036651916,-0.17837265
1764921356222,0.06464344,-2.3127987,-53.764194,-0.2406809,-1.2034045,-0.2761111
1764921356277,-1.7980455,-7.467515,-52.830456,-1.9572122,-0.5216789,-0.15515977
1764921356330,-3.071761,-17.269377,-48.54244,-3.563788,-1.6077974,-0.002443461
1764921356385,-3.2728736,-43.023804,-34.318485,-6.0671134,-2.2198844,1.1398746
1764921356437,3.2082303,-55.047485,-22.723368,-6.9247684,-3.159395,1.8252654
1764921356490,6.6056023,-64.84935,-8.676587,-7.360926,-2.2479842,2.4959953
1764921356548,20.489578,-67.33214,14.796166,-7.1874404,-2.0109684,3.1031954
1764921356604,23.037008,-50.98692,31.656136,-6.5130453,-1.7800614,2.9639182
1764921356657,26.692955,-37.8643,45.863327,-5.5332174,-0.7012733,2.5558603
1764921356711,26.31946,-5.092467,57.913345,-2.8527408,0.081855945,1.2400564
1764921356765,22.548592,2.4420857,58.210224,-1.4013249,0.6805039,0.6169739
1764921356818,20.39381,2.779668,56.63963,-0.032986723,0.065973446,0.037873644
1764921356871,18.076223,-6.385336,48.204857,2.5546384,0.7318166,-0.6805039
1764921356923,17.7961,-15.892711,45.183376,3.7348301,0.516792,-1.0861185
1764921356977,17.47049,-28.050467,33.765427,5.062851,1.6566665,-1.3988814
1764921357033,10.448297,-44.66862,16.476896,6.591236,1.7373008,-1.518611
1764921357085,6.4523735,-47.84094,5.9424086,6.972416,1.767844,-1.3988814
1764921357137,3.8833952,-46.071625,-2.7389667,7.0139546,1.8875736,-1.0543534
1764921357188,0.51235914,-39.40138,-13.108254,6.367659,1.2327261,-0.5363397
1764921357242,0.22984336,-34.136528,-18.442535,5.880189,0.7452556,-0.31031954
1764921357301,1.5131354,-28.649017,-26.477476,5.3206363,0.05497787,-0.29077184
1764921357354,0.48362875,-13.074736,-47.074795,3.2888985,0.30298916,-0.28221974
1764921357407,0.016759412,-7.019799,-55.3707,1.8216002,0.14172074,-0.29565877
1764921357464,-5.434838,-8.343793,-54.906227,-1.7348573,-0.7770206,-0.15515977
1764921357516,-5.2289367,-18.401834,-51.188034,-3.4074063,-1.7837266,0.16737708
1764921357568,-9.61272,-33.032803,-46.557648,-4.9736648,-1.6261233,0.73548174
1764921357620,0.4261679,-61.38015,-25.673025,-7.159341,-3.136182,2.172237
1764921357673,4.0533834,-71.05273,-14.132973,-7.5820594,-3.2901201,2.978579
1764921357725,11.408371,-76.92091,-3.1866825,-7.626042,-3.097087,3.749491
1764921357779,17.439365,-74.737404,9.900024,-7.3462653,-1.6945401,3.9950588
1764921357833,25.7664,-48.76031,35.63051,-5.925393,-0.47769663,3.4746015
1764921357885,27.518955,-28.328194,46.983814,-4.8820353,-0.657291,2.792876
1764921357938,32.055965,-16.711529,51.748276,-3.662748,-0.24190263,2.058616
1764921357990,28.984205,0.6943185,61.047356,-0.9334021,0.16371189,0.52290064
1764921358041,27.495012,0.842759,56.455276,0.5290093,0.344528,-0.12095132
1764921358093,25.22052,-5.523423,54.08741,1.8729129,0.56688297,-0.68416905
1764921358145,18.715475,-24.856602,38.99197,4.4898596,1.205848,-1.5845845
1764921358199,15.773001,-35.503616,28.938717,5.425705,1.8484782,-1.7385225
1764921358253,11.176133,-41.31195,20.190304,6.1404176,2.2272146,-1.6688838
1764921358305,5.8466406,-45.72207,1.5849615,6.8184776,2.3335052,-1.2241739
1764921358357,3.8163576,-44.084435,-4.2784386,6.741509,2.3811526,-0.77946407
1764921358410,3.071761,-42.298363,-8.468291,6.476393,2.175902,-0.35185838
1764921358464,1.6927006,-35.137302,-18.29649,5.793446,0.8686504,0.36774087
1764921358517,4.4316673,-29.549238,-27.691338,5.2888713,1.0751228,0.44715336
1764921358569,7.2089415,-22.68985,-40.825928,4.555833,1.2632693,0.5497787
1764921358623,6.588843,-1.1731589,-58.81596,1.4892895,0.15271631,-0.19792034
1764921358675,4.5920787,-0.8595184,-62.567673,-0.5216789,-0.51068336,-0.36651915
1764921358728,1.7788919,-10.477027,-55.279724,-2.5289822,-1.4220943,-0.41050145
1764921358786,-0.05746084,-33.142933,-38.204277,-5.396384,-3.1667254,0.45570546
1764921358841,0.031124622,-45.68376,-26.688166,-6.296799,-3.408628,1.1618657
1764921358893,1.2354081,-53.915028,-17.408241,-6.7170744,-3.8313468,1.9743165
1764921358946,9.270349,-57.594917,4.2161894,-6.785491,-1.5296066,2.801428
1764921358999,14.999674,-51.475338,14.4609785,-6.359107,-2.0952678,2.8478537
1764921359052,15.243882,-40.34948,24.617182,-5.8850756,-0.5864306,2.7782152
1764921359105,19.67555,-15.98369,47.170563,-4.384791,-0.17470746,1.9938642
1764921359157,19.783289,-6.667852,49.514484,-3.2021556,0.010995574,1.4343116
1764921359209,18.112135,-1.9297266,51.33647,-2.0390682,0.81489426,0.9334021
1764921359262,9.270349,-1.1875241,34.32088,0.37018433,0.7330383,0.2687807
1764921359318,6.459556,-1.7429788,21.825542,1.0910053,0.77091193,0.13927728
1764921359370,3.2513258,0.78769237,10.749966,1.4208726,-0.33108896,-0.036651913
1764921359422,-1.8626889,2.6408045,2.7102363,1.0103711,0.029321533,0.15393804
1764921359475,-0.4261679,3.4691982,1.9393034,0.6927212,-0.087964594,0.33841935
1764921359528,0.63206923,1.5586253,3.4572272,0.4092797,0.2687807,0.4642576
1764921359588,2.1260512,1.946486,5.3821654,0.21135938,0.3726278,0.23823744
1764921359641,0.81163436,3.4859576,6.31351,0.14172074,0.9053023,0.15149458
1764921359693,0.6392518,4.465186,5.741296,0.13561209,0.35308012,0.034208454
1764921359744,-0.5746084,4.745308,6.2464724,-0.042760566,0.41172317,0.058643065
1764921359795,0.090979666,5.815516,7.0724716,-0.111177474,-0.061086524,0.095294975
1764921359847,0.4333505,5.2169657,7.5704656,-0.16493362,0.18325958,0.17837265
1764921359904,3.9624038,4.4723687,8.995016,-0.21135938,-0.118507855,0.118507855
1764921359956,2.492364,3.5769374,9.629479,-0.21013765,0.20769419,0.04642576
1764921360008,1.9656396,3.4261026,9.411607,-0.13561209,-0.42149702,-0.081855945
1764921360061,1.472434,3.277662,8.920795,-0.07574729,-0.5742133,-0.22724187
1764921360115,1.6903064,3.4093432,8.078036,-0.08674286,-0.44226643,-0.2565634
1764921360173,0.79248077,3.3901896,8.456321,-0.15027285,0.02565634,-0.22235495
1764921360225,0.7374141,3.2225955,8.295909,-0.21991149,0.1001819,-0.2284636
1764921360277,0.4357447,3.0933087,8.836999,-0.25534168,0.1966986,-0.20891592
1764921360330,-0.272939,2.858677,9.473856,-0.22724187,-0.13316862,-0.20891592
1764921360383,1.6136919,2.4253263,9.167398,-0.30298916,0.31031954,-0.047647487
1764921360434,0.079008654,2.755726,9.423578,-0.344528,1.2681563,0.02321288
