t,ax,ay,az,gx,gy,gz
1764917983722,-1.4413095,7.4244194,6.133945,0.073303826,0.028099801,-0.052534413
1764917983774,-1.553837,7.3909006,5.9926867,0.0720821,0.015882496,-0.058643065
1764917983832,-1.5801731,7.323863,5.9041014,0.059864793,0.039095376,-0.061086524
1764917983893,-1.5777789,7.455544,5.793968,0.047647487,0.029321533,-0.06352998
1764917983946,-1.532289,7.45315,5.707777,0.037873644,0.103847094,-0.06352998
1764917984001,-1.8195933,7.589619,5.602432,0.030543262,0.14294247,-0.058643065
1764917984055,-1.8818425,7.6231384,5.566519,0.03176499,-0.096516706,-0.04153884
1764917984108,-2.054225,7.8410106,5.4803276,0.030543262,-0.16249016,-0.02321288
1764917984165,-2.066196,7.869741,5.509058,0.02076942,-0.2443461,0
1764917984219,-1.6352397,7.3885064,5.729325,-0.010995574,-0.47891834,0.0061086523
1764917984272,-1.6998832,7.165846,6.0405707,-0.0012217305,-0.67073005,-0.0061086523
1764917984325,-1.7812861,7.216124,6.445191,0.008552114,-0.65240407,0.009773844
1764917984379,-1.4580688,7.3166804,6.337452,0.05009095,-0.81000733,0.014660766
1764917984434,-1.103727,7.2089415,6.564901,0.06352998,-0.89919364,0.02565634
1764917984489,-2.2601264,7.5680714,6.054936,0.10629055,-1.1215485,0.04886922
1764917984542,-0.39504328,7.457938,7.053318,0.14294247,-2.2968533,0.030543262
1764917984597,1.6184803,7.28795,5.793968,0.1881465,-2.2687535,0.007330383
1764917984649,4.355053,6.5241995,5.1666875,0.12461651,-2.0867157,-0.08307768
1764917984701,1.6136919,6.8522053,8.631097,0.13439035,-1.3878858,-0.111177474
1764917984753,3.9480386,6.7684083,7.273585,0.35918877,-2.2015584,-0.21746802
1764917984805,4.268862,7.0245876,6.3422403,0.3885103,-1.7580702,-0.25534168
1764917984858,4.6016555,7.884106,3.1172507,0.3213151,-0.6291912,-0.29443705
1764917984911,3.1364043,8.372523,3.4500446,0.21135938,0.7501425,-0.19792034
1764917984967,2.7748797,7.8984714,3.514688,0.18692477,0.7318166,-0.16249016
1764917985020,3.1052797,8.559271,1.7022774,0.12705997,1.5735888,-0.06963864
1764917985072,1.1707647,9.085996,2.8299465,0.02321288,2.9150488,0.014660766
1764917985128,2.1691468,8.813056,5.6646814,-0.037873644,1.1814134,-0.10262536
1764917985179,4.584896,7.9511437,5.662287,-0.052534413,2.3652701,0.028099801
1764917985230,-0.6847417,7.539341,6.232107,0.015882496,4.6975536,0.11362094
1764917985281,-2.2481554,8.178593,4.4244847,0.12095132,4.7977357,0.13439035
1764917985337,-3.8043866,8.595184,3.9432502,0.081855945,1.8154916,0.15149458
1764917985389,-1.2904748,7.4627266,1.7118542,0.059864793,0.09162979,0.112399206
1764917985441,-0.6344634,7.967903,1.6208745,-0.14660765,0.3494149,0.064751714
1764917985493,-0.5602432,7.4866686,3.7684734,-0.23090707,-0.4251622,0.056199603
1764917985546,-1.436521,7.359776,4.24492,-0.26511553,-0.042760566,0.019547688
1764917985598,-2.2864625,8.520964,6.1195793,-0.25411993,-0.4569272,0.018325957
1764917985655,-1.0079589,7.929596,4.757279,-0.14782938,-0.30787608,-0.018325957
1764917985710,-2.0015526,7.6973586,5.1666875,-0.15760323,-0.32986724,-0.034208454
1764917985762,-1.8602947,7.81228,5.7963624,-0.15149458,-0.27488935,0.002443461
1764917985817,-1.5849615,8.863335,7.639898,-0.06719518,-0.19547687,0.05009095
1764917985870,-1.5155296,9.765948,9.576807,0.02443461,-0.16493362,0.065973446
1764917985923,-1.4867992,10.184934,11.882423,0.18325958,-0.042760566,0.0720821
1764917985977,-2.2816741,9.337387,13.76666,0.71593404,0.12339478,0.103847094
1764917986029,-2.3630772,8.53054,12.665327,1.033584,0.103847094,0.15149458
1764917986081,-2.3175871,7.762002,10.395624,1.3133603,0.07086037,0.20769419
1764917986137,-1.7262194,7.017405,5.451597,1.627345,-0.25534168,0.30176744
1764917986190,-1.2401965,6.4739213,3.8618474,1.6786577,-0.16493362,0.33353242
1764917986243,-0.78290397,6.1076083,1.8722657,1.6920967,-0.17470746,0.34574974
1764917986296,0.2801216,5.592855,-1.3670892,1.5515977,-0.12583824,0.31031954
1764917986348,0.6847417,5.7963624,-2.372654,1.4575244,-0.12583824,0.28099802
1764917986406,0.7302315,6.3087215,-3.2704794,1.3439035,-0.06719518,0.2406809
1764917986458,0.33279404,7.1059904,-5.535394,1.0958922,-0.0720821,0.18448131
1764917986510,0.8283938,7.2783732,-7.1873937,0.9272934,-0.23579398,0.15271631
1764917986564,1.6687586,7.9726915,-9.394848,0.7049385,-0.43493605,0.1001819
1764917986619,2.2936451,7.9702973,-11.537658,0.015882496,-0.095294975,-0.040317107
1764917986672,1.9560628,7.553706,-11.956643,-0.2406809,-0.10995574,-0.096516706
1764917986727,1.316811,4.900931,-17.06587,-1.1398746,0.23579398,-0.21746802
1764917986780,0.35673606,2.1978772,-20.501549,-1.6945401,0.33964106,-0.3005457
1764917986833,-0.38067806,0.10534488,-17.302896,-2.3518312,1.1264355,-0.3726278
1764917986893,-1.3575124,-3.5769374,-8.406042,-3.6456437,-0.11362094,-0.45570546
1764917986945,-1.5682021,-6.540959,0.46447513,-4.0720277,-0.6914995,-0.3811799
1764917986998,-2.0207062,-8.779537,9.121908,-4.2174134,-0.02321288,-0.16982053
1764917987051,-0.8882488,-7.965509,22.905327,-3.5650096,-0.40561453,-0.04153884
1764917987106,-0.5363012,-4.237737,27.08321,-2.8832839,-0.62796944,0.02321288
1764917987159,-0.23702596,-0.521936,29.348124,-2.1050417,-0.593761,0.081855945
1764917987211,0.17477672,4.5441947,27.155035,-0.7134906,-0.1001819,0.119729586
1764917987264,0.023942016,5.753267,25.256433,-0.16249016,0.13439035,0.1160644
1764917987318,-0.48123455,5.5760956,24.49029,0.31031954,0.21991149,0.11484267
1764917987370,-0.7685388,3.3423057,24.384945,1.2156218,0.44226643,0.2125811
1764917987423,-0.48602295,1.8938135,23.946806,1.7201965,0.6414085,0.26511553
1764917987476,-0.94810385,0.10055647,22.050598,2.243097,0.50335294,0.2968805
1764917987529,-1.1587936,-2.2888567,14.408306,3.0201178,0.06719518,0.36163223
1764917987582,0.088585466,-2.7605145,10.108319,3.241251,-0.04153884,0.36041048
1764917987644,1.1923125,-3.3638535,2.815581,3.3670893,-0.24556783,0.23457226
1764917987695,1.5227122,-2.6431987,0.22026655,3.3194418,-0.35796702,0.13439035
1764917987748,1.5753847,-1.7262194,-2.2888567,3.2253685,-0.31887165,0.05375614
1764917987800,1.484405,-0.7110779,-4.9344497,3.0665436,-0.34697145,-0.040317107
1764917987854,-0.16759412,1.5155296,-10.031705,2.557082,-0.06841691,-0.07574729
1764917987908,-0.32800564,2.3702598,-11.123461,2.211332,-0.034208454,-0.04520403
1764917987961,0.20829555,3.7684734,-12.579136,1.78617,-0.12705997,-0.028099801
1764917988013,1.0869676,5.0613422,-13.855246,1.1068878,-0.10140363,-0.0842994
1764917988066,0.8331822,5.6886234,-14.923059,0.77091193,0.008552114,-0.12461651
1764917988118,0.8523358,6.10282,-15.591042,0.41905355,-0.07696902,-0.17104226
1764917988171,-0.5554548,4.8817773,-16.73547,-0.37751472,-0.16126843,-0.21624629
1764917988225,0.1364695,3.9791632,-17.00841,-0.82711154,-0.21135938,-0.20769419
1764917988277,0.088585466,2.2026656,-17.393875,-1.2986995,-0.13927728,-0.2321288
1764917988329,0.7206547,-0.46686932,-14.032416,-2.2418754,-0.36774087,-0.29443705
1764917988382,-0.6967127,-1.2258313,-11.405977,-2.7000244,0.032986723,-0.3005457
1764917988435,-0.9672575,-0.6751649,-10.01734,-3.1239648,-0.39828414,-0.31887165
1764917988492,-1.2066777,-2.6671407,-2.0494366,-3.8545597,-0.54367006,-0.20769419
1764917988545,-1.2904748,-4.8003745,3.596091,-4.0036106,-0.25411993,-0.14782938
1764917988598,-0.8619126,-5.391742,8.221688,-3.957185,-0.25411993,-0.14049901
1764917988650,-0.62009823,-5.1355624,18.942924,-3.4196236,-0.40194935,-0.07574729
1764917988702,-0.9840169,-2.7269957,23.087288,-2.8979447,-0.5900958,-0.05131268
1764917988758,-0.82121116,0.107739076,25.670631,-2.2858577,-0.50335294,-0.02321288
1764917988812,-1.1252748,5.425261,27.284323,-1.0458013,-0.42394048,0.03176499
1764917988865,-1.2282255,7.3166804,28.57001,-0.44959682,-0.4129449,0.064751714
1764917988918,-1.055843,7.153875,31.182083,0.15760323,-0.25289822,0.08674286
1764917988970,-0.8595184,2.8419175,30.298622,1.5858061,0.35308012,0.15760323
1764917989023,-1.091756,-0.11971009,26.214115,2.4349089,0.657291,0.21991149
1764917989076,-1.685518,-2.932897,21.57894,2.8417451,0.63529986,0.27855456
1764917989131,-1.4700398,-6.3542113,9.821015,3.595553,0.16493362,0.4801401
1764917989184,-0.35673606,-6.9024835,5.3558292,3.731165,-0.2003638,0.47769663
1764917989236,0.079008654,-6.7205243,1.6663644,3.7763689,-0.38728857,0.4092797
1764917989290,0.7158663,-4.948815,-4.855441,3.5992181,-0.12339478,0.29077184
1764917989346,1.2808979,-4.039018,-7.4124484,3.38175,-0.05131268,0.26267207
1764917989398,1.4221559,-3.0190883,-9.19134,3.1154127,0.30909783,0.25900686
1764917989450,1.7884687,0.63206923,-14.877569,2.5045476,0.12461651,0.1881465
1764917989502,1.2162545,2.3008277,-16.606182,2.0977113,0.0061086523,0.118507855
1764917989560,1.5346833,3.8019924,-19.227835,1.645671,-0.004886922,0.07452556
1764917989613,1.6448165,4.5992613,-21.40895,0.61208695,0.058643065,-0.002443461
1764917989665,1.5993267,4.3981485,-21.13362,0.058643065,-0.17837265,-0.062308256
1764917989717,2.1643584,3.064578,-20.247765,-0.48258355,-0.059864793,-0.10629055
1764917989769,2.0925324,-0.11731588,-18.966866,-1.5528195,-0.037873644,-0.267559
1764917989822,1.0103531,-1.0103531,-18.39944,-2.0610592,0.26267207,-0.3481932
1764917989877,0.17477672,-2.8993783,-17.398664,-2.5961773,0.11484267,-0.41050145
1764917989930,0.22266077,-6.519411,-12.794614,-3.6725218,0.33353242,-0.5290093
1764917989983,0.29927522,-9.184157,-11.195287,-4.2051964,-0.14905111,-0.6133087
1764917990036,0.11731588,-13.314156,-7.505822,-4.7317624,-0.22357668,-0.5864306
1764917990088,-0.35673606,-22.380997,1.2066777,-5.5796432,-0.29810223,-0.63285637
1764917990141,1.9895816,-25.661055,11.657368,-5.725029,-0.35185838,-0.5852089
1764917990198,-2.4037786,-23.21418,31.17969,-5.312084,0.111177474,-0.7098254
1764917990250,-6.385336,-4.3526587,47.031696,-2.5912905,-0.6377433,-0.26145032
1764917990303,-5.9926867,2.717419,46.789883,-1.3023647,-0.28955013,0.014660766
1764917990358,-3.7253778,6.528988,44.225693,0.058643065,-0.07941248,0.23335053
1764917990411,-0.93613285,1.4460979,36.39426,1.9046779,0.17592919,0.3115413
1764917990465,-2.1212628,-3.6774938,31.256304,2.7171285,0.32253686,0.31398472
1764917990518,-1.4460979,-7.4627266,23.563734,3.3731978,0.4007276,0.3933972
1764917990570,-1.2186487,-11.724405,11.535264,4.0598106,0.19547687,0.47769663
1764917990623,-0.51235914,-11.722012,7.5968018,4.1648793,0.32253686,0.5510005
1764917990673,-0.89303726,-11.604695,4.6806645,4.1905355,0.096516706,0.5522222
1764917990725,0.079008654,-10.2495775,-1.1204864,4.1502185,-0.44959682,0.4642576
1764917990776,1.2042835,-9.392453,-4.6830587,4.0598106,-0.52534413,0.3481932
1764917990827,1.376666,-7.1514807,-9.11712,3.8521163,-0.17470746,0.28221974
1764917990878,1.7070658,-4.8578353,-11.99495,3.5149186,-0.17715092,0.17592919
1764917990929,0.7661445,-1.2641385,-17.104177,2.6548204,-0.02687807,0.08674286
1764917990980,0.6751649,0.35673606,-18.81603,2.180789,0.0720821,0.065973446
1764917991031,0.9816227,1.6591818,-20.192698,1.6811012,0.05497787,0.03176499
1764917991082,1.3599066,3.4356794,-20.776882,0.6230826,0.018325957,-0.052534413
1764917991133,1.0893618,3.406949,-19.931728,0.111177474,-0.018325957,-0.10262536
1764917991184,0.92655605,2.743755,-18.86631,-0.35185838,-0.11484267,-0.15515977
1764917991236,1.1827357,2.1452048,-17.484856,-0.77457714,-0.16737708,-0.18936823
1764917991288,-0.20111294,-1.496376,-16.701952,-1.5894713,0.009773844,-0.2565634
1764917991341,0.20111294,-3.4141316,-16.941372,-2.048842,0.22479841,-0.26145032
1764917991398,0.7134721,-4.9559975,-17.549498,-2.575408,0.81489426,-0.32253686
1764917991451,2.2601264,-7.323863,-14.164097,-3.7702603,0.1881465,-0.8173377
1764917991505,3.074155,-8.908825,-11.954249,-4.4043384,0.20280726,-0.9957104
1764917991557,-1.1133038,-15.014039,-7.8888946,-5.1605897,0.6169739,-1.2498302
1764917991609,-2.9975405,-22.768858,8.961497,-5.6871552,0.035430185,-1.4001031
1764917991669,-6.0405707,-21.4712,20.94687,-5.375614,-0.6169739,-1.3548992
1764917991723,-8.513782,-16.184803,36.540306,-4.6132545,-0.95905846,-1.0115929
1764917991776,-10.084377,-0.7015011,46.495396,-1.9889772,-0.21502456,-0.36163223
1764917991829,-9.471462,4.5154643,41.153934,-0.7147123,-0.14782938,-0.09040806
1764917991888,-10.623073,6.3925185,37.28251,0.24801129,0.26145032,0.17348573
1764917991941,-10.15381,3.2465374,33.8181,1.7287487,-0.04642576,0.6914995
1764917991994,-7.240066,-1.8602947,31.014488,2.461787,-0.16249016,0.93828905
1764917992048,-2.6384103,-10.168175,19.826384,3.6994,-0.09040806,1.1068878
1764917992104,-1.5059528,-12.98615,14.970943,4.106236,-0.21380283,1.0604621
1764917992157,-0.031124622,-14.274231,9.744401,4.397008,-0.23457226,0.99204516
1764917992208,0.82360536,-15.614984,2.2888567,4.658458,-0.07696902,0.8588765
1764917992259,1.0941502,-15.5359745,-1.7932571,4.682893,-0.29932398,0.7635816
1764917992310,0.830788,-14.255077,-6.9958572,4.5570545,0.10751228,0.72082096
1764917992364,0.6871359,-12.152967,-11.451467,4.252844,-0.16615535,0.6768387
1764917992418,2.468422,-5.3366756,-20.379444,3.2265902,0.24190263,0.66706485
1764917992471,2.9616275,-2.2768857,-22.31396,2.5925121,0.3555236,0.62796944
1764917992525,5.427655,0.24899697,-24.528597,1.3439035,0.32498032,0.49357912
1764917992577,6.0238113,2.566584,-25.06011,0.7257079,0.27855456,0.35918877
1764917992631,7.8170686,1.553837,-22.70182,-0.08552113,-0.02321288,0.1282817
1764917992690,5.4659624,-0.30406362,-19.115307,-1.0726794,-0.33475417,-0.18203785
1764917992744,6.4643445,-1.5370775,-18.684351,-1.6212363,-0.26633725,-0.3640757
1764917992799,3.6990416,-3.8714242,-18.974049,-2.130698,-0.05497787,-0.52412236
1764917992851,2.4013844,-7.3310456,-18.79209,-3.3731978,0.1685988,-0.752586
1764917992903,2.6886885,-9.935937,-14.523228,-3.930307,0.47769663,-0.87598073
1764917992954,0.79966336,-10.536881,-11.252748,-4.350582,0.47403142,-1.0812315
1764917993007,-3.2513258,-14.81532,-2.6408045,-5.0384164,0.5448918,-1.251052
1764917993059,-0.48362875,-16.955736,3.1196449,-5.211902,-0.08552113,-1.2021828
1764917993112,0.007182605,-18.215086,9.315839,-5.214346,-0.02076942,-1.2437216
1764917993165,-5.2145715,-15.6317425,27.404032,-4.353026,-0.34330627,-1.2925909
1764917993219,-7.9008656,-9.591172,37.251385,-3.5124753,-0.09162979,-1.0592403
1764917993271,-9.758766,-2.3391352,39.724594,-2.3848178,-0.15149458,-0.8368854
1764917993325,-12.710816,4.9416323,36.832397,-0.29443705,0.36651915,-0.13316862
1764917993378,-11.949461,5.5258174,34.294544,0.5375614,0.4605924,0.25778514
1764917993430,-9.23683,3.845088,30.63381,1.2644911,0.23823744,0.55955255
1764917993486,-4.1252093,-1.3383588,22.000319,2.4410176,0.112399206,0.90408057
1764917993540,-3.086126,-3.4261026,17.791313,2.864958,0.32986724,0.9761627
1764917993592,-3.4859576,-4.4196963,13.831304,3.1655037,0.13561209,1.0164797
1764917993646,-1.685518,-6.215348,7.48188,3.540575,-0.5290093,0.89552844
1764917993698,-0.82121116,-6.5218053,4.8027687,3.6370916,-0.9761627,0.7452556
1764917993757,0.50757074,-6.5744777,1.8315643,3.6994,-1.0348058,0.5656612
1764917993809,0.33279404,-5.116409,-3.9432502,3.5662313,-0.6035349,0.22479841
1764917993861,0.581791,-3.715801,-6.921637,3.4171803,-0.5326745,0.15027285
1764917993914,0.16759412,-1.9369092,-9.399636,3.1422908,-0.40317106,0.0842994
1764917993967,-1.2401965,0.92176765,-14.982914,2.3176227,-0.064751714,0.11362094
1764917994020,-1.340753,2.3654714,-17.525557,1.9046779,-0.112399206,0.14172074
1764917994072,-0.45968673,3.7684734,-19.589357,1.4379768,-0.06719518,0.17104226
1764917994126,-0.04309563,4.987122,-20.13763,0.408058,0.002443461,0.14782938
1764917994179,0.22744916,4.453215,-19.519926,-0.10995574,-0.02687807,0.12950343
1764917994231,-0.6799533,3.5865142,-19.488802,-0.6084218,-0.105068825,0.118507855
1764917994282,-0.33997664,0.7374141,-17.915812,-1.613906,-0.14049901,0.12461651
1764917994334,-0.8690952,-0.8355764,-17.884687,-2.1331415,0.14660765,0.12583824
1764917994386,-1.0654198,-2.3127987,-16.084248,-2.6719246,0.12095132,0.10629055
1764917994443,-0.34476504,-3.620033,-13.907918,-3.1581733,0.13072516,0.105068825
1764917994496,0.25139117,-6.4308257,-8.90643,-4.015828,0.3494149,-0.019547688
1764917994547,-0.33039984,-8.930372,-6.8402343,-4.4324384,0.53878313,-0.09162979
1764917994598,-0.5554548,-10.472239,-3.0430303,-4.773301,0.45814893,-0.16371189
1764917994650,2.2170308,-16.891092,9.832987,-5.0921726,-0.3652974,-0.2932153
1764917994703,3.3997664,-17.652449,20.568586,-4.8209486,-0.43249258,-0.30909783
1764917994757,0.2777274,-13.970167,31.11744,-4.11601,-0.39095375,-0.28588495
1764917994811,-0.031124622,-2.315193,36.664806,-2.1038198,-0.19425514,-0.19303341
1764917994864,-0.80205756,1.9297266,35.889084,-1.1484267,0.2284636,-0.1160644
1764917994917,-1.6376339,4.072537,34.026394,-0.3359759,0.3005457,-0.05009095
1764917994970,-1.3694834,3.0190883,30.573956,1.0567969,0.14660765,0.11728613
1764917995023,-1.2593501,0.39983168,28.534096,1.8362609,0.11728613,0.1966986
1764917995079,-0.7757214,-2.7006595,25.871744,2.2870796,-0.0036651916,0.21746802
1764917995132,0.62249243,-7.0485296,19.122488,3.4220672,-0.1001819,0.15515977
1764917995193,1.1994951,-8.978256,16.807297,3.821573,0.23457226,0.13072516
1764917995245,-0.4405331,-11.034876,6.409278,4.3860126,0.34697145,0.10262536
1764917995296,-0.78050977,-10.457873,1.8602947,4.4532075,-0.4361578,0.05375614
1764917995348,-0.61052144,-9.088389,-2.942474,4.3689084,-0.55833083,-0.013439035
1764917995401,-1.3431472,-7.608773,-7.0365586,4.1551056,-0.91874135,-0.095294975
1764917995454,-1.2689269,-2.918532,-14.408306,3.35365,-1.378112,-0.3885103
1764917995507,-1.6448165,-1.4772224,-16.989256,2.8454103,-0.61453044,-0.408058
1764917995562,-2.4899697,1.6041151,-18.2917,1.7763962,-0.073303826,-0.37018433
1764917995615,-3.157952,2.669535,-18.119318,1.2571607,0.02565634,-0.3005457
1764917995667,-4.086902,3.074155,-18.00679,0.7672467,0.05131268,-0.21746802
1764917995724,-4.0892963,3.1890767,-17.860744,0.32375857,0.034208454,-0.11484267
1764917995777,-3.9671922,2.992752,-18.717869,-0.5705481,-0.04153884,0.08674286
1764917995829,-3.454833,2.1547816,-18.526333,-1.0543534,-0.17104226,0.17837265
1764917995884,-2.789245,-1.9895816,-17.456125,-2.107485,-0.19058995,0.37751472
1764917995937,-3.6032736,-3.8833952,-15.787366,-2.6340508,0.1966986,0.453262
1764917995989,-2.9855695,-4.999093,-15.437813,-3.1618385,0.43004912,0.5155703
1764917996046,-2.944868,-7.872135,-10.237606,-4.3004913,0.47891834,0.5717699
1764917996098,-0.9983821,-9.718064,-4.596867,-4.7305403,0.23701571,0.5510005
1764917996150,1.127669,-11.386824,0.035913024,-5.0115385,0.002443461,0.5021312
1764917996205,1.5227122,-13.745112,6.5960255,-5.1337113,-0.29077184,0.42760566
1764917996261,5.777209,-12.179304,25.735273,-4.425108,0.04886922,0.30176744
1764917996314,2.1571758,-8.884883,36.509182,-3.4660494,0.18936823,0.18448131
1764917996365,1.1492168,4.4675803,41.71178,-0.8784242,-0.09040806,0.08552113
1764917996418,1.1324574,5.899313,41.381382,0.16249016,-0.1282817,0.11728613
1764917996470,1.3718776,4.9081135,39.339127,1.1227703,-0.018325957,0.15882497
1764917996526,3.7493198,-4.0533834,31.119833,2.910162,-0.3555236,0.035430185
1764917996578,3.5865142,-7.666234,22.618023,3.6138787,0.021991149,-0.07452556
1764917996630,2.9879637,-10.235212,14.391546,4.056145,-0.12583824,-0.19181168
1764917996682,1.3790601,-10.584765,2.3391352,4.252844,0.012217305,-0.2968805
1764917996734,1.0175357,-9.607931,-1.1731589,4.174653,0.29443705,-0.37384954
1764917996785,-0.7541735,-8.159439,-3.9217024,4.0317106,0.32375857,-0.2968805
1764917996837,-0.48841715,-5.935226,-7.6255326,3.803247,-0.056199603,-0.27488935
1764917996889,-1.5251064,-2.755726,-10.745177,3.1606169,-0.3555236,-0.19181168
1764917996942,-1.7166426,-1.70946,-13.053187,2.8124237,-0.2968805,-0.16493362
1764917996994,-1.685518,-0.7541735,-14.949395,2.443461,-0.32375857,-0.14782938
1764917997048,-2.2098482,2.468422,-18.926165,1.5674802,-0.09162979,-0.06963864
1764917997101,-1.5801731,3.7301662,-20.453665,1.065349,-0.05497787,-0.013439035
1764917997154,-1.6280571,4.050989,-20.226215,0.54611355,0.028099801,0.036651913
1764917997212,-1.0630256,3.1244333,-19.53908,-0.46914452,0.0036651916,0.0842994
1764917997265,-0.5386954,1.3623008,-18.53112,-0.9615019,-0.06352998,0.06963864
1764917997317,-1.4293385,0.009576807,-18.332403,-1.4428637,0.043982297,0.05009095
1764917997370,-1.2497733,-1.3718776,-17.836803,-2.502104,0.032986723,0.105068825
1764917997423,-1.0845734,-2.5833437,-15.739482,-3.050661,0.19303341,0.12461651
1764917997484,0.29448682,-4.606444,-7.9463553,-3.9767327,0.16982053,0.062308256
1764917997540,0.7206547,-5.554548,-4.3646297,-4.269948,-0.18448131,0.0036651916
1764917997594,0.2753332,-7.93199,-1.2449849,-4.5619416,0.047647487,0.02443461
1764917997649,-0.2777274,-13.67568,10.43872,-4.664567,0.13439035,0.0842994
1764917997700,1.30484,-12.959814,16.694769,-4.3750167,-0.48258355,0.09407325
1764917997752,-0.62488663,-11.003751,25.02659,-3.8472292,-0.24923302,0.13194689
1764917997804,2.4037786,-0.6943185,33.985695,-2.117259,-0.535118,0.13194689
1764917997856,1.4796166,3.4141316,36.76536,-1.2437216,-0.2687807,0.12705997
1764917997908,2.066196,5.5760956,38.115692,-0.34697145,-0.22602014,0.10629055
1764917997964,2.6647465,2.9376855,35.139698,1.378112,0.18570304,0.087964594
1764917998017,3.2106245,-0.8499416,31.031248,2.179567,0.42149702,0.06963864
1764917998070,3.1483753,-4.3957543,25.634718,2.8845057,0.4361578,0.02687807
1764917998124,2.2768857,-8.200141,13.670892,3.771482,0.36041048,-0.07086037
1764917998184,1.42455,-8.619126,8.700529,3.9694023,0.21502456,-0.09285152
1764917998235,0.6871359,-8.267179,5.657499,4.0634756,-0.09285152,-0.13561209
1764917998286,-0.08140286,-8.173804,0.16519992,4.062254,-0.47403142,-0.30543262
1764917998336,-0.39983168,-7.6255326,-3.2728736,3.9865067,-0.75991637,-0.42394048
1764917998388,-1.7669208,-6.646304,-6.9240313,3.7873645,-0.1160644,-0.39095375
1764917998441,-1.8938135,-5.4061074,-11.451467,3.2400293,0.14049901,-0.31642818
1764917998494,-2.4396915,-3.7253778,-13.376405,2.9651399,-0.039095376,-0.28099802
1764917998548,-2.4157495,-2.0901382,-16.464926,2.6438248,0.09407325,-0.22602014
1764917998605,-2.621651,1.8746599,-21.84709,1.6823229,-0.061086524,-0.09773844
1764917998658,-2.5953147,2.8993783,-24.38255,1.0934488,0.09773844,-0.02443461
1764917998710,-2.5689783,3.5194764,-25.285164,0.44348818,0.05375614,0.032986723
1764917998765,-2.2385786,2.3080103,-23.590069,-0.9101892,-0.13439035,0.15027285
1764917998818,-1.1180922,0.11971009,-20.939688,-1.6542231,-0.31398472,0.20769419
1764917998870,-1.0534488,-1.922544,-18.224663,-2.1661282,-0.2846632,0.22968534
1764917998925,-0.94810385,-4.781221,-11.990162,-2.9492574,-0.26145032,0.23579398
1764917998980,-0.19153613,-4.5298295,-9.92636,-3.2485814,-0.24678956,0.2443461
1764917999040,-0.15562311,-4.735731,-7.639898,-3.549127,-0.095294975,0.24556783
1764917999091,-0.46926352,-5.544971,-3.799598,-4.083023,0.03176499,0.21013765
1764917999143,0.2801216,-7.2352777,-1.1252748,-4.320039,0.09407325,0.17104226
1764917999195,-1.7046716,-9.591172,3.3063924,-4.478864,0.6805039,0.16249016
1764917999250,-2.4995465,-10.8385515,16.055517,-4.298048,0.45814893,0.047647487
1764917999304,1.7286136,-9.052477,22.407333,-3.7727036,-0.7501425,0.019547688
1764917999356,-0.260968,-5.0757074,27.31066,-3.12763,-0.42149702,0.07452556
1764917999408,0.7493851,2.5809495,33.61938,-1.6041322,-0.4202753,0.14905111
1764917999461,0.8595184,4.654328,36.08062,-0.7855727,-0.15271631,0.1600467
1764917999517,1.1755531,4.7740383,38.05823,0.112399206,0.04520403,0.1282817
1764917999571,0.12689269,1.163582,31.41432,1.8301523,0.5644395,0.10751228
1764917999624,0.30885202,-1.400608,26.130318,2.502104,0.61208695,0.14905111
1764917999677,0.02633622,-4.048595,20.973207,3.0262265,0.61208695,0.19425514
1764917999729,0.2801216,-6.919243,10.726024,3.6615262,0.22479841,0.21868975
1764917999792,0.34237084,-7.3406224,6.715736,3.8020253,-0.16126843,0.17959438
1764917999843,0.19153613,-6.943185,0.49081135,3.8508945,-0.4007276,0.02565634
1764917999894,-0.7254431,-7.0820484,-1.1875241,3.8179078,-0.039095376,0.032986723
1764917999945,-0.18914193,-6.579266,-3.7828386,3.7727036,-0.15393804,0.03176499
1764917999997,-0.93134445,-6.3206925,-4.4699745,3.6334264,0.081855945,0.018325957
1764918000053,-0.81402856,-2.9352913,-13.623008,3.2302554,0.16737708,0.07574729
1764918000106,-1.0654198,-0.545878,-19.349937,2.8539624,0.16249016,0.105068825
1764918000160,-0.5410896,1.9871874,-23.223757,2.2968533,-0.15027285,0.13561209
1764918000212,0.37110126,2.681506,-23.068134,0.9810496,-0.0061086523,0.13316862
1764918000266,0.9959879,2.1164744,-21.971588,0.39095375,0,0.09773844
1764918000324,0.92895025,1.2689269,-21.674707,-0.7134906,0.09773844,-0.008552114
1764918000376,0.8475474,0.5674258,-21.820755,-1.282817,0.13072516,-0.06352998
1764918000428,0.8379706,-1.0007763,-20.214245,-1.8851302,-0.05497787,-0.13683382
1764918000484,0.4381389,-3.430891,-16.371552,-2.946814,0.35185838,-0.29443705
1764918000536,-0.38307226,-3.7708676,-13.93186,-3.4196236,0.3359759,-0.40683624
1764918000588,-0.8619126,-4.477157,-10.81461,-3.8362339,0.3371976,-0.4447099
1764918000639,-0.6679823,-6.631939,-2.8107927,-4.410447,-0.1282817,-0.42760566
1764918000691,-0.4381389,-9.255983,1.9033904,-4.5937066,-0.28710666,-0.36896262
1764918000743,-1.4987702,-10.82658,8.62152,-4.520403,-0.1600467,-0.26145032
1764918000795,0.5267244,-10.510546,15.399506,-4.2186356,-0.25167647,-0.21013765
1764918000849,-1.5945383,-4.333505,23.386562,-3.1019738,-0.31520647,-0.10873401
1764918000903,-1.340753,-0.23942018,25.728092,-2.4801128,-0.25411993,-0.036651913
1764918000956,-1.6998832,3.1028855,28.076803,-1.8228219,-0.2284636,0.017104227
1764918001008,-1.6687586,7.493851,34.3544,-0.39584067,-0.17470746,0.12461651
1764918001061,-0.9744401,6.4404025,37.536293,0.4288274,-0.17837265,0.16249016
1764918001113,-0.4381389,3.4261026,36.478058,1.3695599,0.1282817,0.21868975
1764918001165,1.3623008,-3.9025488,25.091234,3.0469959,0.17592919,0.21502456
1764918001219,1.3623008,-6.543353,18.588581,3.6932912,0.07574729,0.16371189
1764918001273,1.364695,-8.566454,12.413936,3.9547415,-0.0061086523,0.118507855
1764918001345,0.8834604,-9.437943,1.8028339,4.2137485,-0.34330627,-0.08552113
1764918001396,0.23463176,-9.320627,-0.5746084,4.1636577,-0.33841935,-0.18203785
1764918001447,-1.6711528,-7.189788,-6.4619503,3.8704422,-0.010995574,-0.080634214
1764918001501,-1.0845734,-7.728483,-8.746018,3.6713002,-0.26389378,-0.07574729
1764918001560,-0.36870706,-7.8912888,-12.318168,3.4416149,-0.03176499,-0.05375614
1764918001613,-0.7589619,-2.2170308,-20.685904,2.6743681,0.18448131,-0.014660766
1764918001666,-2.0254946,-0.61530983,-22.756887,2.0952678,0.6609562,0.059864793
1764918001722,-1.0031705,1.4508862,-25.900475,0.7489208,0.39584067,0.24556783
1764918001776,-0.5267244,1.3096284,-26.070463,0.07452556,0.17715092,0.2602286
1764918001828,1.6376339,0.7374141,-26.07525,-0.6218608,-0.12217305,0.21624629
1764918001881,2.3080103,-2.6886885,-23.546974,-2.0427334,-0.14049901,0.037873644
1764918001934,2.2361844,-4.8458643,-20.980389,-2.6853635,0.06352998,-0.073303826
1764918001989,0.4141969,-5.6910176,-18.11453,-3.28279,0.5180137,-0.17715092
1764918002040,-1.5682021,-8.487445,-9.263166,-4.206418,0.18936823,-0.31887165
1764918002093,-0.35673606,-9.837775,-5.717354,-4.473977,-0.32620203,-0.27855456
1764918002144,-0.31603462,-10.891224,-2.3343468,-4.6633453,-0.6560693,-0.18325958
1764918002196,1.0534488,-11.815386,-0.02873042,-4.759862,-0.5900958,-0.034208454
1764918002249,0.61530983,-15.923836,7.651869,-4.855157,0.5644395,0.05375614
1764918002301,-0.7637503,-16.17762,18.839973,-4.618141,0.46670106,-0.052534413
1764918002355,1.958457,-11.164163,27.243622,-3.9791763,-0.61208695,-0.10873401
1764918002409,-0.6871359,-0.35434186,38.32638,-1.9779817,-0.16371189,-0.007330383
1764918002461,-0.61770403,3.8259344,39.698257,-1.2168436,-0.061086524,0.018325957
1764918002514,-0.038307227,5.7269306,38.417362,-0.25167647,-0.015882496,0.07819075
1764918002572,1.9752164,1.6304513,35.36954,1.709201,0.13805555,0.09407325
1764918002627,2.6623523,-2.6767175,31.706413,2.5265386,0.2003638,0.058643065
1764918002682,1.9560628,-9.811439,20.51352,3.8142426,0.49235737,-0.042760566
1764918002745,1.0007763,-11.918336,13.879188,4.2174134,0.07696902,-0.11728613
1764918002797,0.6727707,-12.428301,7.5201874,4.43366,0.018325957,-0.17470746
1764918002849,0.8738836,-11.417948,0.1340753,4.4263296,-0.17348573,-0.33964106
1764918002900,0.5674258,-11.473015,-2.3511062,4.320039,0.21868975,-0.32498032
1764918002952,-0.06943185,-11.918336,-5.0757074,4.2088614,0.27855456,-0.2602286
1764918003004,-0.9935937,-8.463503,-14.705187,3.739717,0.02076942,-0.2284636
1764918003056,-0.81642276,-5.5521536,-19.637243,3.3292155,-0.20891592,-0.22602014
1764918003109,-1.9680338,-2.0590134,-22.967577,2.7525587,0.02443461,-0.20280726
1764918003162,-2.1547816,2.0973208,-24.619576,1.3402383,-0.103847094,-0.07696902
1764918003216,-2.042254,2.0231004,-24.435223,0.6597345,-0.05497787,-0.039095376
1764918003269,-2.1763294,1.2186487,-23.939623,0.02321288,0.095294975,-0.002443461
1764918003322,-1.5993267,-0.5243302,-22.589293,-1.1533136,0.02565634,0.042760566
1764918003374,-1.3982137,-1.4389153,-20.989965,-1.7275269,-0.18692477,0.047647487
1764918003429,-1.3599066,-2.9472623,-19.55105,-2.2797492,-0.17592919,0.057421334
1764918003484,-1.6304513,-4.8147397,-15.423448,-3.3121114,-0.0720821,0.019547688
1764918003536,-1.4652514,-6.155493,-12.5743475,-3.781256,-0.15515977,0.032986723
1764918003587,-1.1755531,-8.214506,-7.9750857,-4.189314,-0.059864793,0.059864793
1764918003638,1.0175357,-10.726024,-1.3718776,-4.696332,-0.2406809,0.05375614
1764918003690,-0.40462008,-12.988544,2.3942018,-4.811175,0.34574974,0.06841691
1764918003746,0.9864111,-16.582241,6.4499793,-4.8380527,-0.18936823,-0.0036651916
1764918003802,-0.19632454,-13.24233,22.967577,-4.261396,-1.0421361,0.042760566
1764918003854,-0.15083471,-9.01417,31.43587,-3.549127,-1.0641272,0.204029
1764918003908,1.8387469,-3.359065,35.44855,-2.615725,-1.0311406,0.312763
1764918003962,3.3614593,4.2760444,39.703045,-0.67073005,-0.4092797,0.27000242
1764918004014,4.295198,4.8578353,39.650375,0.28710666,-0.20158553,0.172264
1764918004067,3.5075054,2.8083985,37.99598,1.2082914,0.23579398,0.0842994
1764918004120,3.3207579,-4.699818,30.09751,2.8661797,0.625526,-0.012217305
1764918004173,3.0765493,-8.281544,23.487118,3.5295794,0.5522222,-0.05131268
1764918004239,2.4971523,-10.484209,15.796943,3.9816196,0.3726278,-0.1160644
1764918004290,0.31124622,-11.5616,4.3885717,4.3041563,-0.039095376,-0.20647246
1764918004341,0.34237084,-11.061212,1.1013328,4.283387,-0.39828414,-0.31887165
1764918004393,-0.4261679,-10.563218,-1.3096284,4.1990876,-0.35063666,-0.39584067
1764918004447,0.08140286,-9.19134,-6.1507044,3.9180896,0.41416663,-0.408058
1764918004499,-1.520318,-8.947132,-8.439561,3.7519343,1.5931365,-0.13439035
1764918004552,-1.3120226,-7.479486,-12.215217,3.602883,0.93218035,0
1764918004604,-0.49081135,-1.3551182,-22.311565,2.769663,0.18936823,0.13316862
1764918004657,0.8451532,1.1563994,-26.087221,2.125811,0.096516706,0.13072516
1764918004710,0.062249243,2.779668,-28.000189,1.3390167,0.23823744,0.12461651
1764918004762,0.15083471,1.7812861,-27.1287,-0.32986724,-0.047647487,0.1160644
1764918004817,0.61052144,-0.1340753,-25.323471,-1.0983357,-0.40683624,0.11362094
1764918004869,0.80924016,-1.2785037,-24.317907,-1.8093829,-0.3494149,0.11484267
1764918004922,-0.45968673,-4.987122,-20.06341,-3.1520646,-0.3115413,0.118507855
1764918004986,-0.62009823,-6.6486983,-15.832856,-3.7372735,-0.05009095,0.14294247
1764918005039,0.5530606,-8.810662,-5.133168,-4.4935246,-0.19181168,0.13683382
1764918005090,2.8874073,-10.670957,-1.2282255,-4.6535716,-0.4642576,0.13072516
1764918005142,-0.40940848,-11.812991,9.272743,-4.632802,0.02076942,0.03176499
1764918005194,1.3862427,-10.874464,13.6732855,-4.3627996,-0.27000242,-0.087964594
1764918005249,1.1109096,-4.5561657,23.898922,-3.3499851,-0.5131268,-0.103847094
1764918005302,0.22266077,-1.0127473,27.24841,-2.7256808,-0.23335053,-0.04886922
1764918005355,-0.6871359,2.5234885,30.207644,-1.9950858,-0.18570304,-0.02687807
1764918005408,0.074220255,8.101978,35.027172,-0.45204028,0.02565634,0.089186326
1764918005466,0.019153614,7.489063,36.887466,0.40317106,0.21624629,0.10629055
1764918005519,1.8842367,1.4748282,33.174057,2.271197,0.77213365,0.089186326
1764918005587,2.3319526,-2.645593,27.427975,3.073874,0.8906415,0.065973446
1764918005638,-1.733402,-8.9998045,12.030864,4.007276,0.9138544,0.25411993
1764918005690,-1.1899183,-10.821792,6.8450227,4.1990876,0.59131753,0.3885103
1764918005742,-1.0414777,-10.97502,2.765303,4.2968264,0.4251622,0.46670106
1764918005794,0.46926352,-11.384429,0.24181437,4.3322563,0.27977628,0.50335294
1764918005849,0.93613285,-11.453861,-7.043741,4.284609,0.36285394,0.6096435
1764918005902,0.5315128,-9.488221,-12.488156,4.0414844,0.21135938,0.6560693
1764918005958,2.8275523,-5.020641,-20.86068,3.136182,-0.40194935,0.57910025
1764918006011,4.0342298,-2.3894134,-25.20855,2.5766296,-0.23335053,0.44104472
1764918006064,4.000711,-0.581791,-26.206932,1.8594738,-0.20769419,0.27122417
1764918006120,3.0190883,0.22266077,-26.163836,0.30665436,-0.07452556,0.081855945
1764918006172,2.2409728,0.39264908,-24.621971,-0.4007276,0.017104227,-0.0012217305
1764918006225,2.5617957,-0.4333505,-23.051374,-1.0250319,-0.19303341,-0.08552113
1764918006278,2.5330653,-2.0805612,-19.668367,-2.1832323,-0.2125811,-0.21624629
1764918006335,2.0709844,-4.891354,-17.563864,-2.6914723,-0.15882497,-0.27855456
1764918006388,3.0214825,-5.4300494,-17.144878,-3.1215215,-0.5876524,-0.37140608
1764918006440,1.5897499,-8.034941,-11.461043,-4.234518,-0.39095375,-0.43249258
1764918006492,0.6991069,-9.591172,-5.595249,-4.5998154,0.096516706,-0.45081854
1764918006543,0.62967503,-11.247959,-0.5410896,-4.8160615,0.4728097,-0.5314528
1764918006596,-0.92416185,-12.349293,10.584765,-4.68778,0.07574729,-0.79412484
1764918006650,-3.4500446,-10.69011,16.587029,-4.348139,-0.2443461,-0.75869465
1764918006704,-5.1259856,-9.181764,22.44564,-3.821573,-0.9419542,-0.61819565
1764918006757,-3.940856,0.92176765,35.302505,-2.2492058,-0.9932669,-0.07696902
1764918006810,-4.414908,4.345476,38.647205,-1.2657127,-0.6988298,0.095294975
1764918006862,-2.8491,6.531382,39.856277,-0.26145032,-0.172264,0.2443461
1764918006917,-2.147599,3.0502129,34.646492,1.6847663,0.6243043,0.37384954
1764918006970,-1.5586253,-0.521936,29.740774,2.5082128,0.61941737,0.4251622
1764918007023,-1.2378023,-4.1276035,22.804771,3.1618385,0.83199847,0.5314528
1764918007076,-1.4700398,-8.003817,9.631873,3.8496728,0.78801614,0.7623598
1764918007129,-1.2545617,-9.004593,4.7500963,3.9535198,0.376293,0.84299403
1764918007180,-0.6536171,-9.457097,0.878672,3.9584067,0.26145032,0.906524
1764918007231,-0.79248077,-8.908825,-1.7357962,3.9009855,0.14294247,0.956615
1764918007282,1.3215994,-6.517017,-7.735666,3.6786306,-0.32620203,0.8576548
1764918007334,2.2002714,-5.4420204,-10.812215,3.4684927,-0.04642576,0.77824235
1764918007386,3.5649664,-3.9959226,-15.282189,3.186273,0.1881465,0.7293731
1764918007440,5.0517654,0.9888053,-22.807165,2.1661282,0.0842994,0.54367006
1764918007492,5.4899044,2.1619642,-23.669079,1.4856243,-0.0036651916,0.3921755
1764918007545,5.758055,2.566584,-24.301147,0.81122905,-0.062308256,0.23701571
1764918007598,5.571307,2.1667526,-22.301989,-0.5644395,-0.095294975,-0.15393804
1764918007651,5.4683566,1.6017209,-21.38022,-0.98471475,-0.111177474,-0.2773328
1764918007705,4.7860093,0.18195933,-20.135237,-1.6542231,-0.09896017,-0.46914452
1764918007759,3.3638535,-3.715801,-15.255854,-2.652377,0.68294734,-0.7367035
1764918007811,2.3104045,-4.960786,-13.67568,-3.0787609,1.0873401,-0.9138544
1764918007864,1.4389153,-5.4061074,-11.956643,-3.4684927,0.8943067,-1.1386528
1764918007916,-1.4053963,-6.1530986,-6.0501475,-4.1758747,-0.25534168,-1.3683381
1764918007992,0.22984336,-7.7787614,-2.0757728,-4.428773,-1.459968,-1.2999213
1764918008043,-4.39336,-14.326903,10.7356,-4.696332,0.21380283,-0.81489426
1764918008094,-5.221754,-13.182474,19.665974,-4.356691,-0.84665924,-0.63529986
1764918008145,-4.5394063,-9.095572,29.666553,-3.6774087,-1.047023,-0.30665436
1764918008196,-1.9416976,1.6807296,37.040695,-1.7788396,-0.7147123,0.14294247
1764918008249,-1.2162545,6.1243677,39.27688,-0.8210029,-0.22235495,0.22113322
1764918008301,0.16280572,5.9567738,40.186676,0.19303341,-0.103847094,0.22724187
1764918008358,-0.7781156,-0.19393034,32.75747,2.189341,0.7867944,0.30176744
1764918008410,-1.1540052,-3.9336734,24.961946,2.9944615,0.71837753,0.36163223
1764918008463,-2.0087352,-5.3558292,16.819267,3.5246925,0.08307768,0.38240165
1764918008515,-0.09816227,-5.109226,5.626374,3.8655553,-0.5375614,0.3042109
1764918008570,-0.24420857,-5.104438,2.3247697,3.8570032,-0.75747293,0.23457226
1764918008628,0.29927522,-4.924873,0.035913024,3.7824776,-0.5693264,0.14294247
1764918008682,-0.79487497,-5.9184666,-2.7509377,3.571118,0.18081611,0.09162979
1764918008743,-0.90740246,-5.935226,-5.2002063,3.4807103,-1.0763446,0.05131268
1764918008795,-0.82360536,-3.715801,-13.227964,3.0714304,0.37751472,0.14294247
1764918008846,0.16280572,-1.8746599,-18.045097,2.7586675,-0.04642576,0.16371189
1764918008898,1.1444284,-0.01436521,-22.931664,2.2883012,0.10629055,0.10751228
1764918008950,1.685518,1.8267759,-24.191013,1.6664404,-0.24190263,0.032986723
1764918009002,0.81642276,3.5122938,-26.980259,-0.052534413,-0.12217305,-0.06719518
1764918009056,1.0869676,2.3247697,-25.912445,-0.8772025,-0.21502456,-0.10140363
1764918009115,-0.1388637,-1.4772224,-21.552603,-2.3054054,-0.28099802,-0.17470746
1764918009169,-0.6679823,-3.2321723,-18.825607,-2.8955014,-0.3200934,-0.172264
1764918009224,-0.8882488,-4.9655743,-16.225506,-3.3939674,-0.32253686,-0.13927728
1764918009279,-1.1180922,-8.990228,-10.412383,-4.2797217,-0.021991149,-0.013439035
1764918009331,-0.23223756,-11.3964,-5.729325,-4.649906,0.12095132,-0.017104227
1764918009384,0.79008657,-14.185645,-1.1875241,-4.900361,0.09285152,-0.07574729
1764918009437,-2.15957,-16.093824,18.339584,-4.7952924,0,-0.21991149
1764918009496,-2.6647465,-10.828975,27.913998,-4.15144,-0.5815437,-0.07941248
1764918009549,-0.830788,-4.6136265,34.802116,-3.259577,-0.5021312,0.047647487
1764918009602,-0.50757074,3.8977604,31.196447,-1.2815952,0.042760566,0.17592919
1764918009656,-0.16280572,5.7628436,24.983494,-0.5888741,0.11728613,0.17592919
1764918009713,0.7517793,6.2584434,19.668367,-0.15027285,0.23579398,0.16615535
1764918009765,0.47884035,5.142745,10.596737,0.16982053,0.2687807,-0.0012217305
1764918009817,1.1611878,3.3734303,6.5265937,0.19547687,0.18203785,-0.040317107
1764918009869,-2.3894134,4.0174704,7.4866686,0.089186326,0.49357912,-0.0012217305
1764918009926,-1.2521675,3.560178,8.760384,0.1441642,-0.11728613,0.1441642
1764918009980,-1.0414777,4.122815,8.920795,0.19914207,-0.21746802,0.16493362
1764918010033,-0.260968,5.0014873,8.4587145,0.2321288,-0.029321533,0.1685988
1764918010085,0.12689269,4.88896,8.588001,0.23090707,-0.18448131,0.13194689
1764918010138,0.12928689,5.0182467,8.0924015,0.22724187,-0.087964594,0.10262536
1764918010198,0.21068975,4.9320555,7.714118,0.17715092,0.22357668,0.05009095
1764918010250,-0.07182605,4.7644615,7.8745294,0.14538592,0.25900686,0.03176499
1764918010302,-0.10295067,4.9296613,7.45315,0.13439035,0.21624629,0.004886922
1764918010354,-0.4285621,5.044583,7.297527,0.064751714,0.23335053,-0.04153884
1764918010412,-0.7278373,4.9775453,7.4603324,0.04153884,0.22724187,-0.047647487
1764918010465,-0.7015011,5.058948,7.4387846,0.030543262,0.0720821,-0.05375614
1764918010517,-0.7565677,4.721366,7.6853876,0.002443461,0.07819075,-0.04886922
1764918010569,-0.7422025,5.011064,7.560889,0,0.008552114,-0.052534413
1764918010622,-0.7278373,5.1355624,7.5680714,-0.012217305,-0.021991149,-0.056199603
1764918010675,-0.770933,5.2241483,7.750031,-0.057421334,-0.065973446,-0.073303826
1764918010736,-0.7206547,5.073313,7.941567,-0.07696902,0.013439035,-0.080634214
1764918010787,-0.9648633,4.9583917,8.178593,-0.089186326,0.05009095,-0.09040806
1764918010839,-1.3215994,4.817134,8.408437,-0.07696902,0.095294975,-0.095294975
1764918010892,-1.3623008,4.8985367,8.39886,-0.058643065,0.08674286,-0.08307768
1764918010945,-1.3479356,4.8578353,8.317456,-0.035430185,-0.032986723,-0.07819075
1764918010998,-1.6208745,4.876989,8.312668,-0.02443461,-0.04886922,-0.04642576
1764918011050,-1.7238252,4.8985367,8.281544,-0.019547688,-0.043982297,-0.02076942
1764918011103,-1.6232687,4.831499,8.413225,-0.015882496,-0.034208454,0.0036651916
1764918011155,-1.4867992,4.781221,8.511387,0.0012217305,-0.056199603,0.042760566
1764918011209,-1.3958195,4.7548847,8.51857,0.010995574,-0.028099801,0.058643065
1764918011262,-1.1420342,4.76925,8.659827,0.02321288,-0.02321288,0.06719518
1764918011317,-1.0773908,4.8362875,8.580819,0.057421334,-0.008552114,0.08307768
1764918011369,-0.93852705,4.951209,8.377312,0.0720821,-0.02443461,0.08307768
1764918011421,-0.8283938,4.8961425,8.39886,0.064751714,0.1282817,0.0842994
1764918011473,-0.5530606,4.9464207,8.520964,0.039095376,0.37140608,0.042760566
1764918011532,-0.23463176,5.116409,8.513782,0.052534413,0.32253686,-0.02321288
1764918011585,-0.44532153,5.0517654,8.7771435,0.07574729,0.6792821,-0.09162979
1764918011637,-2.633622,4.6782703,9.502586,0.26511553,-0.204029,-0.028099801
1764918011690,0.4405331,5.386954,7.503428,0.32498032,-0.2443461,-0.036651913
1764918011743,0.7086837,5.3103395,7.2687964,0.27122417,0.010995574,-0.17348573
1764918011800,-0.46686932,5.813122,8.3390045,0.38606682,-0.6939429,0.13683382
1764918011852,-2.5594015,6.873753,16.129736,0.4166101,-0.6401868,0.14782938
1764918011904,-0.04070143,5.791574,19.51035,0.6963864,-0.030543262,0.20280726
1764918011955,1.0726024,3.9719806,21.626823,1.9376645,-0.10629055,-0.007330383
1764918012006,-1.151611,3.502717,15.574282,2.4129176,-0.13072516,-0.10140363
1764918012057,-2.2816741,3.8881836,10.424355,2.6047294,0.26267207,-0.06841691
1764918012108,-1.8650831,2.7724855,5.583278,2.6682594,0.06841691,-0.008552114
1764918012159,-2.1092918,2.042254,4.309563,2.7207937,0.08552113,0.172264
1764918012210,-2.1140802,1.7046716,2.5210943,2.7440066,0.13683382,0.2565634
1764918012261,-1.9991584,1.2497733,1.4891934,2.7598891,0.042760566,0.33108896
1764918012314,-1.0606314,2.3774424,-2.1045034,2.7122416,-0.09773844,0.35308012
1764918012368,-0.51235914,2.3774424,-2.4756045,2.701246,-0.10629055,0.3213151
1764918012420,0.37588966,2.087744,-4.1132383,2.6768115,-0.25411993,0.27855456
1764918012472,0.19871874,0.92895025,-8.058883,2.4691174,-0.018325957,0.22968534
1764918012525,0.40940848,0.5482722,-10.204087,2.2944098,0.073303826,0.21868975
1764918012583,0.24181437,1.1707647,-12.538434,2.0549507,-0.032986723,0.20158553
1764918012636,0.6655881,2.2146366,-15.50485,1.4697418,-0.02076942,0.13927728
1764918012688,0.7158663,2.6719291,-17.422606,1.1203269,-0.036651913,0.10873401
1764918012742,0.51954174,2.954445,-18.136078,0.72204274,-0.013439035,0.087964594
1764918012793,0.50038815,2.4349031,-18.478449,-0.21380283,-0.09407325,0.032986723
1764918012848,0.7134721,1.6424223,-17.927782,-0.6377433,-0.12583824,0.017104227
1764918012900,0.47644615,-1.13964,-17.597382,-1.0506883,-0.14538592,0.013439035
1764918012954,-0.5291186,-6.6870055,-25.076868,-2.2333233,0.28099802,0.15149458
1764918013007,0.8738836,-8.66701,-26.45114,-3.200934,0.7819075,0.06963864
1764918013059,2.3343468,-12.981361,-23.652319,-4.252844,1.142318,-0.18448131
1764918013113,3.0885203,-21.12883,-10.18254,-5.848424,0.17470746,-1.0409144
1764918013167,1.3000516,-24.238897,-0.8714894,-6.3395596,0.39706242,-1.2339478
1764918013222,-4.3382936,-27.638664,16.098612,-6.433633,0.035430185,-1.2596041
1764918013281,-1.8052281,-9.004593,50.290207,-4.338365,-0.68294734,-0.6939429
1764918013335,-5.0374002,0.033518825,56.311623,-2.702468,-0.49480084,-0.54000485
1764918013392,-4.7309427,7.539341,54.276554,-0.97249746,0.028099801,-0.34574974
1764918013445,-7.2664022,7.48188,38.800434,1.7605137,0.7806858,0.1001819
1764918013499,-5.98311,2.7964275,29.88682,2.6218336,0.7476991,0.3640757
1764918013553,-2.15957,-7.0102224,16.048334,3.644422,0.31398472,0.65484756
1764918013605,-0.82121116,-9.291897,9.01417,3.8789942,0.39461896,0.7086037
1764918013658,-0.39983168,-10.019734,3.904943,3.9742892,0.09162979,0.6743952
1764918013711,0.80924016,-8.171411,-3.6990416,3.9058723,-0.3408628,0.48747048
1764918013765,0.49559975,-6.8186865,-6.3206925,3.7336085,-0.20280726,0.39461896
1764918013817,0.7110779,-5.00867,-8.678981,3.499036,-0.14172074,0.34330627
1764918013872,-0.04309563,-1.733402,-14.269443,2.8209758,0.03176499,0.2602286
1764918013924,-0.45250413,-0.20350714,-16.950949,2.3738225,-0.02443461,0.2406809
1764918013977,-0.28491,1.3000516,-19.64682,1.767844,0.021991149,0.25900686
1764918014031,0.81163436,3.323152,-20.580557,0.752586,-0.05497787,0.21502456
1764918014084,0.80445176,3.2728736,-19.697098,0.2443461,-0.06352998,0.1685988
1764918014140,0.81881696,3.3159695,-18.744205,-0.22357668,-0.04642576,0.12583824
1764918014194,1.2425907,1.6256629,-15.5671,-1.0103711,-0.08307768,0.02687807
1764918014246,1.0175357,-0.17717093,-15.749059,-1.359786,-0.039095376,-0.034208454
1764918014298,0.7278373,-1.9081788,-16.510414,-1.754405,0.04520403,-0.089186326
1764918014356,-0.18914193,-5.5377884,-21.37304,-2.910162,0.32498032,-0.21991149
1764918014409,-0.44771573,-8.173804,-22.809559,-3.748269,0.59620446,-0.30909783
1764918014461,-0.50038815,-13.335704,-22.728157,-4.747645,0.64751714,-0.43249258
1764918014513,-1.0079589,-28.948294,-9.799467,-6.5167103,0.43982297,-0.8258898
1764918014568,-0.25378537,-36.305676,1.958457,-6.9834113,-0.82344633,-0.8356637
1764918014622,0.35434186,-39.947254,26.714502,-6.849021,-1.0922271,-0.5180137
1764918014674,1.3215994,-14.4107,52.672436,-4.01705,-0.9822713,0.13194689
1764918014726,0.8523358,-3.3854012,54.63568,-2.403144,-0.6243043,0.25045475
1764918014778,1.3742718,3.8426938,51.398724,-0.9016371,-0.37507126,0.32620203
1764918014833,4.4220905,2.5378537,44.73566,1.4428637,-0.13072516,0.33964106
1764918014886,5.7005944,-4.0462008,39.595306,2.525317,0.06352998,0.23701571
1764918014942,4.936844,-9.830592,31.24912,3.4697146,0.19303341,0.07941248
1764918014994,2.1428106,-15.765819,13.500903,4.509407,0.44348818,-0.064751714
1764918015046,1.2378023,-15.777789,7.3430166,4.658458,0.32742378,-0.05497787
1764918015097,0.59855044,-14.891934,2.9496565,4.6670103,0.07452556,-0.07696902
1764918015149,-0.18195933,-13.40753,-0.31603462,4.5766025,0.21746802,-0.037873644
1764918015202,-0.15801731,-9.406818,-8.066066,4.1404448,-0.23823744,0.056199603
1764918015255,-0.21068975,-6.7731967,-11.45865,3.8056905,-0.70616025,-0.04153884
1764918015311,-0.08619126,-1.3120226,-17.164032,2.8930578,-0.21991149,-0.08674286
1764918015363,0.61770403,0.5602432,-19.153614,2.3591616,-0.05497787,-0.09040806
1764918015415,0.36870706,2.0207062,-19.488802,1.8093829,-0.06841691,-0.09773844
1764918015476,0.5482722,3.4596214,-19.838356,0.7635816,-0.028099801,-0.12705997
1764918015528,0.7110779,3.3518825,-19.713858,0.267559,-0.0842994,-0.16615535
1764918015582,0.7062895,3.3806129,-20.453665,-0.22235495,-0.047647487,-0.20525073
1764918015635,-0.1316811,1.4556746,-20.333956,-1.2815952,-0.19181168,-0.24678956
1764918015692,-0.45250413,-0.59855044,-19.220652,-1.8399261,-0.47891834,-0.26633725
1764918015744,-1.3742718,-2.8395233,-19.352333,-2.3958135,-0.28955013,-0.22968534
1764918015796,-1.091756,-6.8091097,-17.099388,-3.6224308,-0.118507855,-0.13072516
1764918015849,-1.3192052,-9.622296,-14.06354,-4.221079,-0.021991149,-0.1160644
1764918015901,-0.8283938,-13.057976,-10.158598,-4.7610836,-0.30543262,-0.10751228
1764918015954,3.526659,-21.236568,-3.241749,-5.616295,-1.3170254,0.08307768
1764918016010,0.9576807,-28.58198,11.87524,-5.828876,-0.9932669,0.2125811
1764918016062,-0.50757074,-25.48149,25.936386,-5.453805,-0.42149702,0.33475417
1764918016114,3.9911342,-7.7931266,43.564896,-3.2314773,-0.61819565,0.45448375
1764918016166,5.4539914,0.11971009,45.724464,-1.9999728,-0.2932153,0.3567453
1764918016218,5.046977,4.6710877,46.538494,-0.83199847,0.12583824,0.23090707
1764918016270,3.2106245,2.1859062,42.966343,1.3255776,0.6780604,0.05497787
1764918016324,2.1380222,-2.743755,38.077385,2.3530529,0.7134906,0.042760566
1764918016377,0.82599956,-8.200141,31.11744,3.2339206,1.0140363,0.13072516
1764918016431,2.4756045,-14.693215,14.329297,4.4642034,0.56077427,0.2125811
1764918016483,1.6184803,-15.162479,8.082825,4.6718974,0.36285394,0.17348573
1764918016536,1.9393034,-14.652514,3.4021606,4.7256536,0.04642576,0.059864793
1764918016602,0.36391866,-13.144167,-3.071761,4.5717154,0.06841691,-0.065973446
1764918016654,0.1340753,-11.602302,-7.2304893,4.379904,0.39095375,-0.05497787
1764918016708,-1.043872,-9.263166,-10.611102,4.085467,0.17715092,-0.02076942
1764918016760,-1.0414777,-4.232949,-17.642872,3.2314773,0.19181168,0.080634214
1764918016812,-0.50038815,-1.6472107,-20.618866,2.71102,0.018325957,0.105068825
1764918016865,-0.2896984,0.59376204,-22.692244,2.107485,0.058643065,0.10873401
1764918016918,0.24420857,2.705448,-23.274035,0.8503244,-0.004886922,0.0720821
1764918016970,0.2801216,2.2840683,-21.758505,0.24556783,-0.062308256,0.04153884
1764918017026,0.21787235,1.1420342,-20.539856,-0.2846632,-0.07696902,0.0061086523
1764918017080,1.2880806,-1.460463,-19.680338,-1.2449434,-0.22357668,-0.10995574
1764918017132,-0.5267244,-1.8363527,-22.278048,-1.8301523,-0.04886922,-0.15149458
1764918017184,-1.4628572,-3.739743,-24.219744,-2.5546384,-0.19914207,-0.14294247
1764918017237,-3.3566709,-12.409147,-25.244463,-4.4006734,0.073303826,-0.03176499
1764918017290,-1.6831238,-18.126501,-19.776106,-5.303532,0.056199603,0.030543262
1764918017346,-0.31364042,-23.080105,-10.520123,-5.9803705,-0.22724187,0.040317107
1764918017398,2.4947581,-33.29377,6.3206925,-6.6242228,-0.37995818,-0.02443461
1764918017450,4.6519337,-34.768597,21.871033,-6.3713245,-0.47647488,-0.089186326
1764918017502,0.32321724,-26.997019,34.993652,-5.48557,-0.7684685,-0.12583824
1764918017555,-1.292869,-7.079654,44.094013,-2.9480357,-0.3042109,0.14049901
1764918017608,-0.51714754,-0.24181437,43.287167,-1.4770721,-0.35918877,0.24556783
1764918017672,3.4691982,2.3774424,44.80509,0.6096435,-0.034208454,0.29443705
1764918017723,3.7110126,-1.3575124,42.635944,1.6896533,0.204029,0.20158553
1764918017775,2.8275523,-7.21373,37.80205,2.7391198,0.4251622,0.112399206
1764918017829,0.25378537,-15.533581,20.355503,4.2907176,0.8698721,0.20647246
1764918017881,0.9504981,-16.46253,12.5025215,4.658458,0.44593164,0.24556783
1764918017933,0.5315128,-16.263813,7.079654,4.8038445,0.5448918,0.28344148
1764918017986,0.32561144,-15.672444,2.8898015,4.819727,0.26389378,0.27366763
1764918018039,0.1388637,-13.385982,-3.7612908,4.629137,0.26267207,0.2602286
1764918018092,-0.14604631,-11.252748,-7.577648,4.415334,-0.028099801,0.2602286
1764918018151,0.15562311,-6.909666,-15.109807,3.7348301,-0.13439035,0.2443461
1764918018204,-0.24420857,-4.3646297,-19.2829,3.2522466,0.14049901,0.25167647
1764918018257,-0.15322891,-1.2952632,-22.060175,2.6535985,-0.004886922,0.26389378
1764918018313,1.1611878,2.8538885,-24.370579,1.3121386,-0.103847094,0.21868975
1764918018367,1.2521675,3.1244333,-23.781605,0.63041294,-0.13683382,0.16371189
1764918018420,1.5921441,2.9903579,-22.531832,-0.008552114,-0.15882497,0.09896017
1764918018472,1.316811,1.5777789,-20.099323,-1.1362094,-0.18570304,-0.02687807
1764918018525,0.9744401,0.81163436,-19.136854,-1.6517797,-0.13439035,-0.07452556
1764918018578,0.7350199,-0.50278234,-18.30846,-2.1526892,-0.17837265,-0.111177474
1764918018634,0.7158663,-3.3638535,-15.696386,-3.1129694,0.002443461,-0.18692477
1764918018687,0.79008657,-4.927267,-13.6014595,-3.5735617,0.04520403,-0.2443461
1764918018740,0.33039984,-6.8186865,-10.702082,-4.0292673,0.27366763,-0.31398472
1764918018792,-0.30645782,-11.9614315,-2.6072857,-4.813618,0.09896017,-0.5888741
1764918018849,0.7230489,-14.501679,1.3335704,-4.915022,0.32375857,-0.63163465
1764918018904,-2.2122424,-16.266207,7.9152308,-4.883257,0.04153884,-0.766025
1764918018957,-2.8921957,-13.199234,24.090458,-4.0610323,-1.3439035,-0.39095375
1764918019009,-0.2705448,-8.655039,32.17807,-3.35365,-1.2901474,-0.15271631
1764918019070,-0.19393034,1.6927006,39.82994,-1.3866642,-0.07574729,0.017104227
1764918019122,-1.3359646,3.6894648,40.06936,-0.41538838,0.2602286,0.039095376
1764918019176,-1.5442601,3.9240966,39.667133,0.50701815,0.3567453,0.08552113
1764918019229,-2.6719291,-2.6599581,34.442986,2.3371704,0.4288274,0.23945917
1764918019282,-1.7956513,-7.8027034,30.073568,3.1716123,0.18570304,0.33108896
1764918019335,-1.3120226,-11.748347,23.276428,3.8838813,0.18570304,0.38606682
1764918019389,0.047884032,-14.645331,8.305486,4.646241,0.17837265,0.4007276
1764918019442,-0.17717093,-14.178462,3.5362358,4.704884,0.20891592,0.40439278
1764918019495,0.2753332,-13.366828,-0.6775591,4.678006,0.12461651,0.4129449
1764918019548,0.07182605,-10.694899,-7.81228,4.320039,0.08674286,0.44104472
1764918019601,-0.0047884034,-8.566454,-11.87524,4.0317106,0.035430185,0.43127087
1764918019653,0.90500826,-6.739678,-15.868769,3.6603045,0.087964594,0.43860126
1764918019708,1.910573,-0.94331545,-21.902157,2.6462681,-0.14660765,0.35918877
1764918019760,2.1308396,1.3311762,-23.286005,2.0048597,-0.1881465,0.2761111
1764918019814,2.2625206,2.7940333,-23.865402,1.3353515,-0.087964594,0.19425514
1764918019869,2.566584,2.3654714,-21.940464,0.07452556,-0.057421334,0.0012217305
1764918019921,2.2960393,2.0446482,-21.60767,-0.48502702,-0.04886922,-0.10262536
1764918019972,2.0015526,1.2808979,-21.006725,-1.0396926,-0.13439035,-0.18570304
1764918020024,1.5634137,-1.6783354,-21.85188,-2.1661282,-0.0720821,-0.34208453
1764918020076,1.6831238,-3.5242648,-21.871033,-2.7977629,-0.103847094,-0.41538838
1764918020129,1.6304513,-5.4563856,-19.730616,-3.4599407,0.056199603,-0.5045747
1764918020188,1.721431,-8.101978,-15.966931,-4.1135664,-0.029321533,-0.61575216
1764918020241,0.22505496,-17.04911,-5.506664,-5.2045717,-0.62796944,-0.829555
1764918020293,1.0534488,-20.865467,-1.0726024,-5.4648004,-0.344528,-0.7305948
1764918020346,-0.8643068,-26.276363,15.636531,-5.4696875,-0.05009095,-0.75991637
1764918020400,-4.8219223,-21.69865,28.62268,-4.8857,-0.29810223,-0.6450737
1764918020453,-3.9121256,-12.854469,36.71269,-3.7849212,-0.64996064,-0.42271876
1764918020506,-5.8203044,1.484405,41.13478,-1.6578883,-0.06963864,-0.172264
1764918020558,-6.919243,4.3167458,41.64235,-0.7012733,0.14538592,0.009773844
1764918020611,-7.1107793,4.2784386,41.86022,0.22235495,0.21624629,0.204029
1764918020667,-7.1275387,1.0510546,41.024647,1.1887437,0.27122417,0.4092797
1764918020720,-4.8243165,-9.509769,30.937874,3.068987,0.52412236,0.87964594
1764918020773,-3.2249897,-13.079524,22.196644,3.789808,0.45448375,1.0604621
1764918020827,-0.8451532,-14.84405,7.086837,4.411669,0.44837508,1.2657127
1764918020879,-0.22984336,-13.879188,2.0111294,4.4409904,0.015882496,1.2339478
1764918020932,0.7350199,-12.241553,-2.4468741,4.3725734,-0.37751472,1.1203269
1764918020989,1.5131354,-7.3909006,-10.141838,3.8912115,-0.31764993,0.893085
1764918021041,1.6903064,-4.3526587,-13.5535755,3.517362,-0.39461896,0.7684685
1764918021093,2.0087352,-1.6424223,-17.2598,3.0482175,-0.1600467,0.6719518
1764918021146,3.122039,2.9735985,-20.697874,1.9120082,-0.17470746,0.42638394
1764918021203,3.2369606,4.5657425,-20.59253,1.2999213,-0.12583824,0.3115413
1764918021257,3.6128504,5.3366756,-19.917364,0.72082096,-0.09407325,0.19547687
1764918021310,3.643975,5.243302,-19.486408,-0.33841935,-0.028099801,-0.057421334
1764918021362,3.2561142,4.4556093,-18.978836,-0.8552113,-0.004886922,-0.16982053
1764918021414,3.13401,3.3159695,-18.143261,-1.3658947,0.05497787,-0.27366763
1764918021469,2.4492683,0.8379706,-16.54154,-2.334727,0.16249016,-0.4972443
1764918021522,1.8650831,-0.7565677,-14.420277,-2.8258626,0.2406809,-0.6035349
1764918021574,0.9864111,-3.2824504,-11.540052,-3.3988543,0.33353242,-0.7367035
1764918021627,0.32800564,-8.018182,-5.521029,-4.1587706,-0.043982297,-0.8564331
1764918021680,-0.94570965,-11.331757,-0.770933,-4.4727554,0.10140363,-0.86498517
1764918021734,-0.9648633,-14.317327,5.717354,-4.572937,-0.18692477,-0.86742866
1764918021789,-2.408567,-12.741941,22.232557,-3.9327505,-0.9443977,-0.66706485
1764918021841,-3.1148565,-7.872135,28.452694,-3.2937853,-0.42760566,-0.45570546
1764918021893,-2.9999347,-2.6503813,32.49171,-2.5094345,-0.5546656,-0.3323107
1764918021946,-3.5098996,4.0533834,36.236244,-0.8002335,0.13927728,-0.08674286
1764918021998,-3.8833952,4.55856,35.8819,0.05131268,0.2883284,0.009773844
1764918022052,-3.6296098,3.6966474,33.990482,0.8686504,0.48258355,0.112399206
1764918022108,-4.2544966,-2.1930888,26.041733,2.293188,0.9016371,0.39828414
1764918022161,-4.5992613,-4.5513773,21.53345,2.8295279,1.1459832,0.6035349
1764918022214,-4.876989,-6.1004257,17.369934,3.2351422,0.9138544,0.8002335
1764918022270,-2.327164,-7.833828,9.31105,3.7690387,-0.111177474,0.9419542
1764918022321,-1.4915876,-7.917625,5.707777,3.9107592,-0.5314528,0.89552844
1764918022372,-0.04070143,-8.219295,2.9640217,4.002389,-0.45814893,0.8136725
1764918022423,0.34715924,-7.941567,-1.4652514,4.030489,-0.35185838,0.66339964
1764918022475,-0.36391866,-7.795521,-3.9001546,4.025602,-0.16737708,0.6072
1764918022528,0.61052144,-6.931214,-9.61272,3.9547415,-0.07086037,0.5815437
1764918022580,0.21068975,-5.583278,-13.96059,3.6871827,0.029321533,0.53023106
1764918022634,2.1739352,-1.1707647,-22.132,2.6743681,-0.118507855,0.49602258
1764918022688,2.7820623,0.6536171,-23.67626,2.0134118,-0.17104226,0.41172317
1764918022746,2.8874073,1.6256629,-22.67309,0.66706485,-0.10751228,0.23945917
1764918022800,2.8323407,1.292869,-21.028273,-0.057421334,-0.23945917,0.11362094
1764918022852,2.4756045,0.93613285,-20.58774,-0.44226643,-0.20525073,0.04886922
1764918022910,2.3511062,-1.3910311,-20.573376,-1.6334536,-0.34574974,-0.10262536
1764918022963,2.2960393,-3.7684734,-21.569363,-2.2284365,-0.17470746,-0.18570304
1764918023016,0.7781156,-7.21373,-24.408886,-2.950479,-0.04642576,-0.27977628
1764918023068,2.1883004,-15.332468,-19.448101,-4.713436,0.018325957,-0.43493605
1764918023119,2.9999347,-20.010738,-13.227964,-5.4599137,0.23701571,-0.57910025
1764918023170,1.1133038,-23.846249,-7.00304,-6.0267963,0.29077184,-0.7806858
1764918023226,-3.8738184,-28.529308,18.2917,-6.2589254,0,-0.9016371
1764918023278,-3.5913026,-22.754494,37.663185,-5.4586916,-0.29443705,-0.7012733
1764918023330,-3.0454245,-11.437101,48.463432,-4.0781364,-0.9309586,-0.4886922
1764918023384,-2.1859062,6.066907,50.323727,-0.9761627,0.13683382,-0.344528
1764918023437,-3.9240966,7.5225816,43.241676,0.31887165,0.7367035,-0.27977628
1764918023490,-5.2528787,6.069301,35.726276,1.3231341,1.1863003,-0.13927728
1764918023544,-3.9935284,-1.4867992,18.176779,2.5363126,1.5515977,0.34697145
1764918023596,-1.4030021,-2.9999347,11.283873,2.796541,0.90408057,0.4202753
1764918023648,-1.3263878,-2.8898015,5.1140146,2.8368583,0.7281514,0.41050145
1764918023704,-3.1028855,-0.9672575,-1.2497733,2.5607471,0.5766568,0.625526
1764918023757,-5.1140146,-0.093373865,-2.291251,2.366492,0.43860126,0.81000733
1764918023809,-2.741361,0.35913026,-2.882619,2.221106,-0.18692477,0.88453287
1764918023863,-2.504335,4.074931,-4.510676,1.831374,0.007330383,0.8686504
1764918023915,-1.721431,5.554548,-5.3558292,1.6041322,-0.1001819,0.8381071
1764918023968,-0.8762778,6.157887,-6.007052,1.4159856,-0.27366763,0.7965683
1764918024027,-0.17956513,7.7213006,-7.2951326,1.0629056,-0.30298916,0.7110472
1764918024079,0.7062895,8.286332,-7.589619,0.8332202,-0.22113322,0.6719518
1764918024133,0.8499416,8.231265,-7.302315,0.6218608,-0.172264,0.6169739
1764918024185,1.5729905,8.92319,-6.1770406,0.16126843,0.16371189,0.43860126
1764918024237,1.7788919,8.870518,-5.2624555,0.008552114,0.119729586,0.3481932
1764918024291,1.5777789,9.241618,-4.9464207,-0.081855945,0.15515977,0.2846632
1764918024344,1.9847932,9.536105,-3.7565024,-0.23945917,0.12461651,0.1881465
1764918024397,2.066196,9.545682,-3.1028855,-0.30909783,0.15882497,0.12095132
1764918024450,2.5115175,9.512163,-2.7389667,-0.35185838,0.17715092,0.034208454
1764918024504,1.7597382,9.753978,-2.0470424,-0.4288274,0.32253686,-0.12217305
1764918024558,0.62249243,9.885659,-0.7493851,-0.4447099,0.23457226,-0.17470746
1764918024613,0.9672575,9.813833,-0.45250413,-0.39950588,0.010995574,-0.15027285
1764918024665,0.93852705,9.636662,1.0342951,-0.37384954,0.6169739,-0.25534168
1764918024717,0.81881696,9.715671,1.0223241,-0.30665436,0.6267477,-0.32742378
1764918024769,0.21308395,9.610326,1.0989386,-0.23090707,0.68416905,-0.37873647
1764918024821,-0.7182605,9.203311,-0.12689269,-0.08674286,0.1001819,-0.2125811
1764918024874,-0.34476504,9.385271,-0.89064306,-0.08674286,0.17470746,-0.18570304
1764918024926,-0.8882488,9.509769,-1.5346833,-0.13683382,0.34697145,-0.18203785
1764918024985,-1.2162545,9.279925,-1.7357962,-0.19547687,0.18203785,-0.15515977
1764918025037,-0.9504981,8.939949,-1.3192052,-0.33108896,0.09162979,-0.1160644
1764918025089,-0.5363012,9.13388,-0.34476504,-0.36774087,0.16493362,-0.12950343
1764918025142,-1.0941502,9.361329,1.934515,-0.3286455,0.30176744,-0.15515977
1764918025194,-1.5466543,9.0429,1.8195933,-0.26389378,0.19425514,-0.12339478
1764918025247,-1.079785,9.13388,1.7070658,-0.20647246,0.16493362,-0.09407325
1764918025302,-1.769315,10.498574,0.59376204,-0.20647246,0.37873647,-0.035430185
1764918025354,-1.4987702,10.733206,0.90500826,-0.21013765,-0.002443461,-0.013439035
1764918025406,-0.85473,11.2312,1.4556746,-0.19303341,0.012217305,0.0036651916
1764918025461,-1.6711528,11.587936,2.80361,-0.15393804,0.017104227,0.009773844
1764918025515,-2.4708161,10.3453455,4.5920787,0.13683382,-0.064751714,0.112399206
1764918025569,-2.813187,9.916783,5.073313,0.33964106,-0.3640757,0.18936823
1764918025621,-1.9177556,9.627085,5.1379566,0.74036866,-0.6536258,0.33108896
1764918025673,-1.2665327,10.144233,4.7046065,0.9126327,-0.61208695,0.36163223
1764918025726,-0.81642276,10.232818,4.309563,1.078788,-0.47158796,0.36163223
1764918025782,-0.62488663,9.483433,1.7166426,1.3805555,-0.31887165,0.35796702
1764918025834,-1.3479356,8.552089,-0.090979666,1.4758505,-0.1600467,0.3885103
1764918025886,-1.5634137,8.190564,-1.3599066,1.5357152,-0.30665436,0.42149702
1764918025940,-1.1300632,7.7931266,-2.2050598,1.5650368,-0.22479841,0.47769663
1764918025997,-0.088585466,6.505046,-3.53863,1.5662584,-0.1441642,0.5815437
1764918026052,0.34237084,5.887342,-4.120421,1.5699236,-0.24923302,0.5900958
1764918026106,1.4293385,4.0462008,-6.021417,1.577254,-0.28221974,0.5448918
1764918026158,2.3391352,3.2441432,-7.120356,1.5271631,-0.344528,0.48502702
1764918026211,3.122039,2.9712043,-9.064447,1.4489723,-0.2443461,0.42760566
1764918026266,3.6343982,3.4644098,-13.850457,1.1117748,-0.06719518,0.2602286
1764918026318,4.309563,3.2034419,-16.73547,0.8381071,-0.05009095,0.17348573
1764918026370,4.8243165,3.1962593,-19.211075,0.4569272,-0.035430185,0.059864793
1764918026423,4.2185836,1.3623008,-25.005043,-0.6646214,-0.1441642,-0.17348573
1764918026476,4.5896845,-0.90740246,-28.953081,-1.4453071,-0.16615535,-0.22968534
1764918026530,4.865018,-4.7644615,-28.081593,-2.3726006,-0.4166101,-0.3408628
1764918026585,6.1076083,-13.469779,-21.124043,-3.975511,0.33353242,-0.643852
1764918026638,4.0701427,-16.093824,-16.505627,-4.5814896,0.27977628,-0.9932669
1764918026708,-1.3838485,-21.064186,-3.1747115,-5.594304,-0.17470746,-1.2840388
1764918026759,-1.8004397,-24.83266,6.9623384,-5.843537,-0.029321533,-1.1374311
1764918026811,-6.4044895,-25.268404,15.349227,-5.6944857,-0.17959438,-1.0763446
1764918026864,0.93134445,-18.126501,37.79008,-4.4043384,-0.20525073,-0.73426
1764918026921,-5.6359506,-7.457938,42.37737,-3.3512068,-0.06352998,-0.56199604
1764918026973,-8.863335,0.14604631,45.564053,-2.0610592,-0.0036651916,-0.3200934
1764918027025,-5.2145715,4.0797195,39.49954,0.19792034,0.2321288,0.103847094
1764918027078,-4.120421,3.0214825,33.6936,1.0946705,0.4605924,0.23335053
1764918027132,-4.039018,0.031124622,27.645847,1.7898352,0.9285152,0.35918877
1764918027186,-2.1883004,-2.6910827,10.699687,2.5900686,0.13072516,0.48991394
1764918027238,-3.0238767,-2.3319526,5.2049947,2.565634,0.45937067,0.55955255
1764918027290,-2.767697,-1.4437037,2.966416,2.4092526,0.3921755,0.625526
1764918027342,-2.135628,1.0534488,2.5761611,2.1587977,0.29443705,0.65484756
1764918027394,-1.4053963,1.5586253,2.2218192,2.1050417,0,0.6291912
1764918027448,-0.5363012,2.669535,1.2641385,2.0463986,0.07086037,0.59986967
1764918027502,-0.33518824,3.715801,-0.79966336,1.9865338,0.040317107,0.5558874
1764918027555,-0.10295067,4.656722,-2.44448,1.9034561,0.06352998,0.52290064
1764918027607,-0.33518824,5.7963624,-3.727772,1.7666223,0.05497787,0.48380527
1764918027661,0.8355764,7.723695,-6.5026517,1.3891076,-0.0842994,0.39706242
1764918027714,0.7733272,8.542512,-6.9264255,1.1520919,-0.047647487,0.33353242
1764918027769,0.5363012,8.968679,-7.015011,0.9089675,-0.013439035,0.2846632
1764918027822,0.59376204,9.141062,-6.4020953,0.4813618,0.06719518,0.19181168
1764918027875,0.62488663,9.038112,-5.947197,0.30543262,0.021991149,0.15149458
1764918027927,0.641646,9.260772,-5.6000376,0.15271631,0.008552114,0.10629055
1764918027982,0.35913026,9.562442,-4.390966,-0.13072516,0.05497787,0.02076942
1764918028034,0.32800564,9.555259,-3.7732618,-0.2284636,0.12217305,-0.0036651916
1764918028090,0.12689269,9.610326,-3.193865,-0.2968805,0.06841691,-0.036651913
1764918028142,0.36870706,9.457097,-2.4708161,-0.3885103,0.02565634,-0.089186326
1764918028195,0.50517654,9.349358,-2.6791117,-0.42760566,0.105068825,-0.119729586
1764918028247,0.7445967,8.92319,-3.086126,-0.46792278,0.10873401,-0.1685988
1764918028305,0.2873042,7.845799,-5.0757074,-0.6072,-0.13316862,-0.28710666
1764918028357,1.553837,6.8306575,-6.8809357,-0.7012733,-0.37384954,-0.33108896
1764918028409,2.6527755,6.0980315,-14.425065,-0.95417154,-0.75136423,-0.49480084
1764918028462,-2.087744,2.0566192,-16.381128,-2.1685717,-0.21380283,-0.64751714
1764918028514,0.045489833,-1.99437,-14.93503,-2.8478537,-1.4196508,-0.59742624
1764918028568,-0.088585466,-5.686229,-9.935937,-3.5967746,-1.1569787,-0.4202753
1764918028622,0.80684596,-15.138537,4.3766007,-4.542394,-0.79779,-0.19058995
1764918028676,-2.327164,-16.625336,16.493656,-4.533842,-0.40317106,-0.11362094
1764918028729,-0.18914193,-13.328521,29.247568,-4.012163,-0.8576548,-0.004886922
1764918028781,-0.320823,-0.25139117,47.18493,-1.8790215,-0.2846632,0.19547687
1764918028833,-0.9959879,3.6990416,48.875233,-0.5705481,-0.23579398,0.22235495
1764918028888,-0.32561144,2.873042,47.24478,0.63041294,0.48258355,0.33964106
1764918028942,-1.079785,-5.7843914,35.06787,2.7220156,1.0115929,0.45081854
1764918028995,-1.7645266,-10.5680065,26.477476,3.4953709,1.001819,0.5681047
1764918029048,-1.8866309,-13.460202,17.922995,4.013385,0.9089675,0.71837753
1764918029101,-0.49320555,-13.484144,5.5377884,4.378682,0.5522222,0.93462384
1764918029158,0.30885202,-12.653356,1.484405,4.333478,0.7049385,1.0262536
1764918029211,1.5035586,-10.733206,-2.099715,4.1868706,0.48258355,1.070236
1764918029264,4.0198646,-8.152257,-6.919243,3.8557813,-0.1685988,0.9431759
1764918029316,4.4244847,-6.5864487,-9.598354,3.6407568,-0.056199603,0.7831292
1764918029373,5.315128,-4.3646297,-12.825739,3.3707545,0.061086524,0.6560693
1764918029428,5.4324436,-0.019153614,-16.90067,2.5448647,0.14660765,0.34330627
1764918029480,4.867412,1.412579,-17.475279,2.0720549,0.12461651,0.204029
1764918029533,5.0661306,2.4588451,-17.76737,1.6371188,0.10995574,0.081855945
1764918029586,4.0533834,3.9863458,-15.784972,0.86742866,0.002443461,-0.16737708
1764918029639,3.0454245,4.3502645,-14.539987,0.5571091,-0.0061086523,-0.25778514
1764918029693,2.4253263,5.0278234,-13.575124,0.33108896,-0.014660766,-0.33353242
1764918029745,0.80924016,5.3462524,-11.113884,-0.008552114,-0.021991149,-0.38362336
1764918029797,0.30645782,5.097255,-9.991004,-0.103847094,-0.09040806,-0.38973203
1764918029849,-0.34955344,5.17387,-9.143456,-0.15882497,-0.081855945,-0.3726278
1764918029901,-1.2497733,5.511452,-7.9870567,-0.19181168,-0.07819075,-0.2932153
1764918029954,-1.508347,5.781997,-7.5225816,-0.18325958,-0.095294975,-0.23579398
1764918030006,-1.5753847,5.7724204,-7.285556,-0.15760323,-0.087964594,-0.17348573
1764918030062,-1.4269443,5.8634,-7.723695,-0.10995574,-0.040317107,-0.04520403
1764918030114,-0.9983821,5.7724204,-8.59279,-0.10995574,-0.043982297,0.007330383
1764918030166,-0.46208093,5.3079453,-9.818622,-0.14172074,-0.065973446,0.04886922
1764918030219,1.5993267,3.0095115,-15.674838,-0.40194935,-0.26389378,0.05497787
1764918030272,1.6950948,1.697489,-20.688297,-0.7672467,-0.5571091,0.013439035
1764918030325,2.5737667,0.5602432,-24.449587,-1.3500122,-0.88086766,0.007330383
1764918030383,4.209007,-3.8522706,-23.240517,-3.137404,-0.47891834,-0.111177474
1764918030436,5.0302176,-8.051701,-18.174385,-3.8508945,-0.3286455,-0.29077184
1764918030489,3.6535518,-11.279084,-13.831304,-4.443434,-0.24190263,-0.50579643
1764918030542,2.4037786,-17.654844,-2.9520507,-5.222898,-0.66950834,-0.68783426
1764918030594,0.91697925,-19.768923,3.3087866,-5.353623,-0.09896017,-0.7147123
1764918030646,-0.6607997,-21.023485,8.664616,-5.2925363,-0.92485,-0.79290307
1764918030699,-2.3989902,-18.212692,30.351295,-4.7171016,-1.2559389,-0.6951646
1764918030752,-4.9823337,-10.388441,43.737278,-3.739717,-0.69027776,-0.37507126
1764918030805,-2.8754363,-4.39336,51.726727,-2.3322835,-0.92485,-0.26633725
1764918030863,-6.2967505,4.570531,47.960648,0.4129449,0.7635816,0.06963864
1764918030916,-6.4643445,1.8866309,39.566578,1.5198327,0.83077675,0.2773328
1764918030968,-5.9160724,-2.1571758,30.784645,2.3420575,0.77457714,0.49846604
1764918031020,-4.0342298,-7.61835,15.76103,3.34632,0.22235495,0.75747293
1764918031074,-3.430891,-8.614338,10.601525,3.5564575,0.35796702,0.88697636
1764918031129,-2.801216,-8.595184,6.43322,3.6737435,-0.04642576,0.9260717
1764918031182,-1.292869,-8.317456,1.1683705,3.6981783,0.06719518,1.0665708
1764918031235,-0.24181437,-7.4723034,-1.4987702,3.6554177,0.1881465,1.1129965
1764918031287,1.0127473,-6.2704144,-3.679888,3.5430183,0.3200934,1.1203269
1764918031338,1.7597382,-3.9312792,-8.602366,3.2204816,0.30787608,1.0873401
1764918031399,3.098097,-2.3750482,-10.936713,2.9724703,0.05131268,1.0323622
1764918031451,3.632004,-0.110133275,-13.792996,2.6670377,0.10140363,0.9639453
1764918031504,5.1810527,3.25372,-16.871939,1.8606955,0.034208454,0.77579886
1764918031556,5.571307,4.120421,-16.460136,1.4074335,0.058643065,0.65240407
1764918031612,5.8322754,4.4819455,-15.942989,1.0091494,0.02565634,0.5155703
1764918031666,5.377377,5.710171,-14.451402,0.3408628,0.07574729,0.2602286
1764918031719,5.2241483,5.9759274,-13.254301,0.07452556,0.081855945,0.15515977
1764918031771,4.498705,6.1746464,-11.422736,-0.19058995,0.057421334,0.037873644
1764918031824,4.122815,6.10282,-9.107543,-0.45204028,0.03176499,-0.09040806
1764918031882,4.0940847,5.9304376,-8.401254,-0.52290064,-0.017104227,-0.14782938
1764918031937,4.5537715,4.31914,-10.271125,-0.6597345,-0.10873401,-0.27366763
1764918031989,5.046977,2.6312277,-12.938266,-0.829555,-0.12583824,-0.36285394
1764918032042,5.920861,1.4796166,-16.637308,-1.1362094,-0.32742378,-0.51068336
1764918032100,6.0740895,-0.9888053,-21.626823,-2.3652701,0.05009095,-0.8356637
1764918032153,4.805163,-4.072537,-19.86948,-3.1312952,0.17715092,-1.0494665
1764918032205,4.012682,-7.015011,-15.799337,-3.830125,0.040317107,-1.2437216
1764918032258,0.89064306,-13.725958,-5.1523223,-4.7623053,-0.12705997,-1.4746287
1764918032314,-1.283292,-16.340427,0.4309563,-4.9480085,0.09162979,-1.4966198
1764918032366,-1.3263878,-18.26297,7.4483614,-4.9712214,-0.24923302,-1.4844025
1764918032418,-4.134786,-18.911798,18.504786,-4.618141,-0.13927728,-1.2754866
1764918032470,-7.165846,-14.791378,29.252356,-4.0781364,0.039095376,-1.1154399
1764918032522,-6.6774287,-7.9702973,38.79804,-3.1300735,-0.68416905,-0.92485
1764918032583,-11.195287,1.7405846,45.137886,-0.7855727,0.042760566,-0.29810223
1764918032636,-11.224017,3.6343982,42.425255,0.31887165,0.35430184,0.06841691
1764918032689,-11.319786,1.7286136,39.070976,1.2754866,0.66950834,0.44348818
1764918032741,-8.248025,-6.169858,26.906038,2.8539624,0.88086766,1.105666
1764918032794,-7.0221934,-9.459491,20.535069,3.35365,0.7867944,1.3585643
1764918032846,-5.815516,-11.221623,13.364434,3.7274997,-0.13316862,1.4465289
1764918032901,-2.0709844,-10.340557,2.942474,3.9706242,-1.0873401,1.2180653
1764918032954,-2.4516625,-9.093178,-0.7661445,3.938859,-1.0482447,1.1569787
1764918033006,-0.18435353,-7.28795,-1.4173675,3.6456437,-0.46303585,0.93462384
1764918033058,0.8834604,-4.783615,-6.981492,3.3890803,-1.0555751,0.47769663
1764918033112,2.3056161,-3.632004,-11.267113,3.169169,-0.65240407,0.39095375
1764918033165,1.8914193,-0.7230489,-14.72434,2.791654,-0.25534168,0.312763
1764918033218,2.3894134,3.679888,-18.47366,1.7397442,0.010995574,0.16615535
1764918033270,1.9057846,4.819528,-17.961302,1.2046263,-0.09040806,0.096516706
1764918033323,2.2457612,5.1642933,-16.749836,0.7330383,0.0012217305,0.059864793
1764918033379,2.0733786,5.580884,-16.14889,-0.04886922,-0.04642576,-0.04520403
1764918033433,1.9369092,5.542577,-15.519216,-0.43371433,-0.095294975,-0.095294975
1764918033488,1.5562311,4.927267,-14.690822,-0.7965683,-0.18448131,-0.13561209
1764918033541,1.2114661,2.327164,-14.4370365,-1.4782939,-0.32620203,-0.18692477
1764918033593,0.9911995,1.0486604,-16.883911,-1.8655825,-0.1600467,-0.19914207
1764918033654,0.6464345,-1.0103531,-17.551893,-2.3689353,-0.16615535,-0.23090707
1764918033707,-0.2657564,-7.505822,-17.547104,-3.7384953,0.4202753,-0.27855456
1764918033759,0.1364695,-11.992557,-13.690045,-4.448321,0.12583824,-0.38240165
1764918033816,0.6775591,-17.223886,-8.372523,-5.0469685,-0.312763,-0.45448375
1764918033869,-5.872977,-26.568457,13.5775175,-5.6639423,0.30543262,-0.34208453
1764918033921,4.8386817,-22.814348,31.852459,-5.159368,-1.1753048,-0.12461651
1764918033973,2.1260512,-13.611036,47.024517,-4.170988,-0.6621779,0
1764918034025,2.5594015,4.189853,52.614975,-1.0958922,0.26633725,0.05009095
1764918034077,1.4915876,8.00621,46.334984,0.22235495,0.49357912,-0.013439035
1764918034130,0.6488287,6.1219735,39.537846,1.2718215,0.48380527,-0.02565634
1764918034184,-0.6488287,-2.8682537,25.227703,2.8454103,0.20280726,0.02321288
1764918034237,-1.5131354,-6.045359,18.720263,3.1703906,0.07452556,0.04642576
1764918034289,-0.2657564,-7.9631147,14.113819,3.477045,-0.23579398,0.043982297
1764918034341,0.035913024,-8.274361,3.6152446,3.7592647,-0.5448918,-0.15760323
1764918034394,-0.20590134,-7.3885064,0.055066638,3.694513,-0.6805039,-0.2687807
1764918034446,-0.545878,-5.9424086,-3.502717,3.5576792,-0.41172317,-0.312763
1764918034501,-1.6208745,-1.4053963,-9.239224,3.0360003,-0.0061086523,-0.26267207
1764918034555,-1.8794483,0.5243302,-11.113884,2.6755898,0.13805555,-0.18936823
1764918034608,-1.733402,2.516306,-14.240712,2.2944098,0.172264,-0.11484267
1764918034661,-1.5059528,5.3366756,-17.046717,1.3610078,0.26633725,0.004886922
1764918034713,-1.0486604,5.6096144,-17.252617,0.8686504,0.13805555,0.032986723
1764918034769,-0.78529817,5.602432,-17.630901,0.38973203,0.07696902,0.04642576
1764918034821,-1.0175357,5.511452,-18.34198,-0.6646214,-0.058643065,0.064751714
1764918034875,-1.0366893,4.474763,-17.492037,-1.210735,-0.17470746,0.08552113
1764918034927,-1.42455,2.9161377,-17.0946,-1.7324139,-0.13561209,0.12461651
1764918034981,-2.6647465,-1.5849615,-17.204733,-2.819754,-0.015882496,0.24801129
1764918035034,-2.3175871,-4.96318,-16.12016,-3.4611626,-0.0036651916,0.33353242
1764918035088,-1.3623008,-9.275137,-14.037205,-4.102571,0.14049901,0.35796702
1764918035140,0.8619126,-19.55105,-1.1971009,-5.1703634,-0.23945917,0.42638394
1764918035193,0.7182605,-22.73055,14.707581,-5.3230796,-0.16493362,0.43004912
1764918035245,2.9879637,-21.74414,33.11181,-4.8588223,-0.013439035,0.45448375
1764918035297,4.43885,-1.4030021,42.298363,-2.488665,0.15882497,0.1600467
1764918035350,3.787627,4.453215,41.5394,-1.3805555,-0.065973446,0.035430185
1764918035405,3.526659,7.00304,40.971973,-0.44837508,0.12705997,0.010995574
1764918035458,4.8027687,1.541866,37.624878,1.3854424,0.12339478,-0.10140363
1764918035510,4.185065,-2.9903579,32.23553,2.2797492,0.29077184,-0.20280726
1764918035563,2.7006595,-6.361394,24.926033,3.0164526,0.33964106,-0.2773328
1764918035615,2.0973208,-8.954314,12.935872,3.8838813,-0.1600467,-0.4447099
1764918035668,1.5035586,-9.91439,8.477868,4.0695844,-0.064751714,-0.54367006
1764918035723,0.36870706,-9.988609,4.3742065,4.1318927,0.16982053,-0.5900958
1764918035779,-1.376666,-7.563283,-5.032612,3.9681807,0.14049901,-0.52412236
1764918035832,-3.1914709,-5.8681884,-8.611943,3.681074,0.07452556,-0.44959682
1764918035887,-3.1555579,-3.6750996,-11.176133,3.3060026,0.028099801,-0.3286455
1764918035940,-3.4883518,0.0047884034,-13.584701,2.438574,0.14172074,-0.058643065
1764918035993,-2.2864625,1.2761095,-14.025233,2.0390682,0.20647246,0.058643065
1764918036045,-1.388637,2.834735,-14.83208,1.6994271,0.05131268,0.080634214
1764918036097,-1.6950948,4.9679685,-17.372328,0.91996306,0.11362094,0.1001819
1764918036149,-1.2569559,5.5737014,-18.20551,0.4813618,0.07819075,0.1160644
1764918036224,-1.2378023,5.0757074,-17.00362,-0.37873647,0.028099801,0.12217305
1764918036275,-0.842759,3.9600096,-16.270994,-0.7770206,-0.10140363,0.1282817
1764918036326,-1.0845734,2.492364,-16.093824,-1.1520919,-0.02443461,0.13561209
1764918036378,-2.0039468,0.16519992,-16.625336,-1.9437732,-0.08674286,0.15149458
1764918036430,-1.6472107,-1.5634137,-16.594212,-2.470339,-0.14172074,0.20280726
1764918036482,-2.0829554,-3.9576154,-16.237476,-3.0714304,0.12461651,0.25289822
1764918036536,-0.92655605,-10.366894,-10.041282,-4.348139,-0.10140363,0.32498032
1764918036590,-0.6775591,-13.761871,-7.2185183,-4.863709,-0.0720821,0.39706242
1764918036642,0.260968,-18.854338,1.3551182,-5.2607713,0.057421334,0.41905355
1764918036696,-0.14844051,-18.911798,22.55338,-5.0249777,-0.22113322,0.4007276
1764918036749,3.4452562,-13.295002,34.711136,-4.376239,-0.625526,0.49968776
1764918036802,5.590461,-6.301539,44.68538,-2.9798007,-0.85154617,0.47891834
1764918036859,7.551312,5.5856724,45.42519,-0.6963864,-0.2932153,0.35185838
1764918036912,8.343793,5.4324436,38.522705,0.6621779,0.15271631,0.17104226
1764918036965,8.226477,2.5761611,31.421503,1.5283848,0.4288274,-0.02321288
1764918037017,3.1316159,-3.0693667,16.469713,2.5644124,0.9944886,-0.2687807
1764918037074,0.9504981,-3.0310593,9.720459,2.7452285,1.110553,-0.23945917
1764918037126,-0.48123455,-3.1555579,6.1195793,2.7403414,0.56077427,-0.1881465
1764918037179,-2.7126305,-0.557849,1.3215994,2.4569001,0.3213151,0.002443461
1764918037231,0.079008654,-0.06464344,0.60573304,2.3371704,0.20647246,0.052534413
1764918037283,-0.63206923,1.7741034,0.51475334,2.244319,0.28221974,0.04520403
1764918037338,0.08379706,3.3303347,-0.7398083,2.0329595,0.032986723,-0.015882496
1764918037392,-0.37828386,4.177882,-1.1204864,1.9559906,0.039095376,-0.040317107
1764918037447,-0.33279404,4.855441,-2.6479871,1.8875736,0.22235495,-0.02076942
1764918037498,-0.59136784,6.7564373,-4.8506527,1.6762142,0.26389378,-0.012217305
1764918037549,-0.80205756,7.419631,-5.889736,1.4941764,0.15760323,-0.007330383
1764918037601,-0.79966336,8.190564,-6.8522053,1.2938126,0.14905111,-0.0012217305
1764918037654,-0.78050977,8.870518,-7.680599,0.8527679,0.1160644,0.035430185
1764918037710,-0.8331822,8.961497,-7.8170686,0.65118235,0.105068825,0.05009095
1764918037762,-0.90500826,9.234436,-7.666234,0.453262,0.09773844,0.06841691
1764918037814,-0.59376204,9.323022,-6.7564373,0.089186326,0.089186326,0.09162979
1764918037867,-0.48362875,9.284714,-5.841852,-0.057421334,0.11484267,0.1001819
1764918037922,-0.33758244,9.14585,-5.386954,-0.16249016,0.080634214,0.105068825
1764918037978,0.39025488,8.882488,-5.7867856,-0.30298916,0.17837265,0.087964594
1764918038030,0.2896984,8.3390045,-7.3166804,-0.3652974,-0.12583824,0.040317107
1764918038082,0.21308395,7.529764,-9.782708,-0.49357912,0.036651913,0.04153884
1764918038134,1.7405846,4.8147397,-18.911798,-1.2290609,-0.59986967,-0.081855945
1764918038186,-1.1204864,1.1300632,-19.64203,-2.157576,-0.096516706,-0.15882497
1764918038241,-1.6280571,-3.9264908,-18.55985,-2.8502972,-1.142318,0.014660766
1764918038296,0.47644615,-12.780249,-13.283031,-4.1563272,-1.1203269,0.30543262
1764918038349,0.6679823,-17.501614,-4.6591167,-4.8392744,-1.2119566,0.46181414
1764918038401,2.0111294,-20.980389,12.667721,-5.2998667,-0.6988298,0.7367035
1764918038453,10.931925,-11.049241,44.8434,-3.8655553,-0.548557,0.8332202
1764918038507,11.693281,-2.327164,43.83065,-2.475226,-0.30298916,0.5839872
1764918038560,10.888829,3.6056678,39.710228,-1.2815952,0.012217305,0.2846632
1764918038613,7.4842744,5.116409,25.696966,0.32986724,0.32986724,-0.1441642
1764918038665,5.4444146,3.6822822,19.507956,0.7831292,0.40194935,-0.28221974
1764918038718,3.572149,2.3654714,13.584701,1.028697,0.5571091,-0.35063666
1764918038772,1.0247183,1.1013328,7.599196,1.110553,0.47036624,-0.41416663
1764918038827,0.23463176,0.8714894,6.007052,1.0800097,0.0720821,-0.43249258
1764918038880,-0.2873042,1.3838485,5.0757074,1.001819,0.059864793,-0.40683624
1764918038933,-0.9648633,3.3039982,3.7828386,0.79412484,0.30665436,-0.30909783
1764918038985,-0.1388637,4.048595,3.4739866,0.6914995,0.15149458,-0.27000242
1764918039038,-0.33758244,4.510676,3.2106245,0.5412266,0.23579398,-0.25045475
1764918039100,-0.91697925,5.1810527,2.8323407,0.18570304,0.5216789,-0.17348573
1764918039151,-0.7589619,5.106832,3.371036,0.02565634,0.45937067,-0.15393804
1764918039202,-1.4772224,5.269638,3.8642416,-0.10751228,0.2724459,-0.12217305
1764918039253,-1.7549498,4.924873,5.9663506,-0.26145032,-0.028099801,-0.036651913
1764918039305,-1.8243817,4.927267,6.4284315,-0.31398472,0.07452556,0.02687807
1764918039357,-1.8052281,5.032612,7.065289,-0.36041048,-0.028099801,0.095294975
1764918039414,-1.7477672,4.7189717,7.764396,-0.46914452,0.26389378,0.19547687
1764918039469,-1.0127473,4.441244,8.073248,-0.4972443,-0.065973446,0.19914207
1764918039521,-0.30645782,4.390966,9.241618,-0.5314528,-0.087964594,0.16615535
1764918039574,0.59855044,5.0038815,9.940725,-0.5143485,0.63041294,0.019547688
1764918039628,-0.6607997,5.650316,10.014946,-0.44715336,0.82711154,-0.089186326
1764918039680,-0.6536171,5.451597,9.23683,-0.3921755,0.9578367,-0.14049901
1764918039733,-5.925649,5.628768,11.209652,-0.20769419,0.63529986,-0.09162979
1764918039785,-3.347094,5.3247046,11.291056,0.002443461,-0.5705481,0.05375614
1764918039838,-2.1164744,4.8123455,10.78109,0.08307768,0.10140363,0.19303341
1764918039893,-2.3918076,3.9121256,10.3214035,0.22113322,0.23090707,0.22113322
1764918039946,-2.1978772,3.9863458,8.37013,0.3042109,-0.103847094,0.24678956
1764918039998,-0.94810385,4.0677485,7.9367785,0.2773328,0.03176499,0.2846632
1764918040051,-0.2633622,4.489128,6.8402343,0.2321288,-0.1685988,0.23579398
1764918040103,-0.11731588,4.747702,7.0341644,0.16615535,-0.080634214,0.20525073
1764918040155,-0.17717093,4.7500963,7.0724716,0.12583824,-0.02687807,0.16371189
1764918040213,-0.08379706,4.783615,7.1395097,0.039095376,0.014660766,0.09162979
1764918040265,-0.007182605,4.9536033,7.1610575,0.004886922,-0.2125811,0.039095376
1764918040317,-0.038307227,4.8123455,7.6829934,-0.04153884,-0.05375614,0.018325957
1764918040371,-0.60333884,4.7788267,8.343793,-0.064751714,-0.05131268,-0.02321288
1764918040425,-0.51954174,4.7740383,8.401254,-0.061086524,-0.25534168,-0.05375614
1764918040478,-0.8379706,4.5394063,8.801085,-0.059864793,0.040317107,-0.036651913
1764918040531,-0.93134445,4.7022123,8.925584,-0.02443461,-0.0036651916,-0.032986723
1764918040583,-0.8499416,4.6950297,8.750807,-0.008552114,-0.047647487,-0.035430185
1764918040634,-0.91458505,4.6351743,8.827422,0.004886922,0.008552114,-0.032986723
1764918040686,-0.866701,4.6495395,8.643068,0.021991149,-0.014660766,-0.032986723
1764918040738,-0.9864111,4.8722005,8.257602,0.04642576,-0.032986723,-0.02565634
1764918040790,-0.9552865,4.6040497,8.231265,0.04153884,-0.039095376,-0.019547688
1764918040851,-0.9600749,4.7907977,7.714118,0.03176499,-0.028099801,-0.002443461
1764918040904,-1.0079589,4.7405195,7.893683,0.008552114,0.019547688,0.007330383
1764918040957,-1.0726024,4.697424,7.6734166,-0.0036651916,-0.0061086523,0.013439035
1764918041011,-1.067814,4.656722,7.603985,-0.03176499,-0.13439035,0.013439035
1764918041070,-0.6440403,4.5753193,7.666234,-0.056199603,-0.103847094,0.02565634
1764918041122,-0.7254431,4.927267,7.513005,-0.073303826,-0.29932398,0.008552114
1764918041173,-0.009576807,4.3742065,9.536105,-0.08307768,0.081855945,0.02443461
1764918041225,0.18435353,4.5633483,9.947908,-0.03176499,0.073303826,0.0012217305
1764918041279,0.14844051,4.5992613,10.261548,0.021991149,0.17837265,-0.015882496
